Time,accX,accY,accZ
1503530526602,0.17108154,-0.21231079,9.13385
1503530526651,0.15776062,-0.23660278,9.132904
1503530526701,0.17156982,-0.21089172,9.128616
1503530526750,0.18965149,-0.22564697,9.128143
1503530526799,0.17633057,-0.22755432,9.1171875
1503530526849,0.1663208,-0.21517944,9.11528
1503530526898,0.17204285,-0.1956482,9.139572
1503530526947,0.1663208,-0.21517944,9.118622
1503530526996,0.18870544,-0.23898315,9.1129
1503530527046,0.14251709,-0.21279907,9.12529
1503530527096,0.16584778,-0.22850037,9.109573
1503530527145,0.18013,-0.23516846,9.121948
1503530527194,0.1572876,-0.22279358,9.109573
1503530527243,0.17156982,-0.22517395,9.12767
1503530527293,0.17871094,-0.23516846,9.091003
1503530527341,0.1701355,-0.23898315,9.113861
1503530527390,0.17965698,-0.2194519,9.135757
1503530527440,0.16299438,-0.22755432,9.115768
1503530527489,0.16775513,-0.22088623,9.120041
1503530527538,0.14157104,-0.23278809,9.110046
1503530527588,0.17774963,-0.23422241,9.102905
1503530527637,0.17965698,-0.22232056,9.1167145
1503530527687,0.19108582,-0.22279358,9.13147
1503530527735,0.17680359,-0.21279907,9.138138
1503530527784,0.17727661,-0.21707153,9.119095
1503530527834,0.1839447,-0.21374512,9.121002
1503530527883,0.18013,-0.22517395,9.120041
1503530527933,0.17156982,-0.22946167,9.113861
1503530527982,0.16822815,-0.23135376,9.130524
1503530528031,0.1829834,-0.21374512,9.100052
1503530528080,0.18632507,-0.21803284,9.124802
1503530528130,0.16156006,-0.20375061,9.0976715
1503530528179,0.17774963,-0.20707703,9.126236
1503530528228,0.18585205,-0.21279907,9.130051
1503530528278,0.18203735,-0.21850586,9.134811
1503530528327,0.16490173,-0.21707153,9.138138
1503530528376,0.17727661,-0.206604,9.128143
1503530528425,0.16680908,-0.21565247,9.13147
1503530528474,0.1672821,-0.21421814,9.096237
1503530528524,0.16775513,-0.22135925,9.123383
1503530528573,0.18109131,-0.23135376,9.135757
1503530528622,0.17298889,-0.20516968,9.094818
1503530528672,0.17442322,-0.22564697,9.102432
1503530528721,0.16204834,-0.21803284,9.113861
1503530528770,0.18870544,-0.22755432,9.128616
1503530528819,0.17251587,-0.20184326,9.139084
1503530528868,0.17871094,-0.22850037,9.13385
1503530528918,0.17204285,-0.23184204,9.1176605
1503530528968,0.19488525,-0.22517395,9.118622
1503530529017,0.18109131,-0.2270813,9.13385
1503530529066,0.16299438,-0.2370758,9.087677
1503530529115,0.17680359,-0.20898438,9.1091
1503530529164,0.17680359,-0.21897888,9.092438
1503530529213,0.17442322,-0.21469116,9.132431
1503530529262,0.16204834,-0.22470093,9.115768
1503530529313,0.16918945,-0.23422241,9.108139
1503530529362,0.1967926,-0.21994019,9.137665
1503530529411,0.17680359,-0.21707153,9.120529
1503530529460,0.17204285,-0.23469543,9.167175
1503530529509,0.18060303,-0.22612,9.102432
1503530529559,0.16156006,-0.22755432,9.130524
1503530529608,0.18109131,-0.21469116,9.132431
1503530529657,0.1739502,-0.22088623,9.119095
1503530529706,0.16204834,-0.22183228,9.115768
1503530529755,0.16252136,-0.2370758,9.126236
1503530529805,0.18774414,-0.22564697,9.127182
1503530529854,0.17108154,-0.21231079,9.093384
1503530529903,0.17633057,-0.22232056,9.081482
1503530529952,0.16014099,-0.21565247,9.109573
1503530530002,0.19155884,-0.21755981,9.122421
1503530530051,0.17822266,-0.21803284,9.140518
1503530530100,0.17442322,-0.22755432,9.080063
1503530530149,0.17680359,-0.19517517,9.108627
1503530530199,0.16775513,-0.21374512,9.113388
1503530530248,0.17774963,-0.21136475,9.124802
1503530530297,0.16490173,-0.23516846,9.13147
1503530530347,0.18251038,-0.21755981,9.112427
1503530530396,0.16156006,-0.2027893,9.124802
1503530530445,0.17204285,-0.21469116,9.1171875
1503530530494,0.15870667,-0.2027893,9.1419525
1503530530544,0.14538574,-0.19041443,9.076248
1503530530592,0.14157104,-0.20755005,9.111481
1503530530642,0.17442322,-0.21897888,9.061966
1503530530691,0.20298767,-0.20613098,9.140045
1503530530741,0.18156433,-0.23135376,9.135757
1503530530790,0.1663208,-0.22088623,9.100052
1503530530839,0.1634674,-0.21374512,9.082916
1503530530889,0.17918396,-0.24136353,9.098145
1503530530938,0.17204285,-0.22135925,9.114807
1503530530987,0.08015442,-0.18565369,8.971039
1503530531036,0.13824463,-0.2027893,9.118622
1503530531072,0.15823364,-0.24468994,9.102432
1503530531078,0.18203735,-0.21136475,9.130997
1503530531085,0.19155884,-0.22088623,9.069107
1503530531109,0.19393921,-0.22564697,9.007217
1503530531119,0.12728882,-0.2637329,9.130997
1503530531129,0.14633179,-0.23516846,9.042923
1503530531139,0.1867981,-0.20898438,9.145279
1503530531149,0.16299438,-0.22564697,9.169083
1503530531158,0.19393921,-0.21612549,9.142899
1503530531168,0.15585327,-0.22088623,9.081009
1503530531178,0.15585327,-0.23516846,9.08577
1503530531188,0.1534729,-0.20184326,9.147659
1503530531198,0.16061401,-0.22564697,9.09053
1503530531208,0.17965698,-0.22802734,9.050064
1503530531218,0.15585327,-0.24945068,9.083389
1503530531227,0.2034607,-0.21612549,9.08815
1503530531237,0.14395142,-0.23278809,9.142899
1503530531247,0.19393921,-0.28277588,9.147659
1503530531257,0.16299438,-0.23040771,9.169083
1503530531267,0.16537476,-0.25897217,9.130997
1503530531277,0.1867981,-0.20422363,9.111954
1503530531287,0.18917847,-0.23040771,9.081009
1503530531297,0.2034607,-0.2232666,9.059586
1503530531306,0.16775513,-0.22802734,9.114334
1503530531316,0.16299438,-0.20422363,9.145279
1503530531326,0.16299438,-0.1828003,9.095291
1503530531336,0.1701355,-0.22802734,9.083389
1503530531346,0.15823364,-0.23754883,9.145279
1503530531356,0.17251587,-0.23040771,9.111954
1503530531365,0.17251587,-0.24707031,9.1167145
1503530531375,0.19393921,-0.27563477,9.119095
1503530531385,0.15823364,-0.22564697,9.142899
1503530531395,0.17489624,-0.2399292,9.100052
1503530531405,0.1534729,-0.21612549,9.176224
1503530531415,0.32724,-0.3232422,9.123856
1503530531425,0.50338745,-0.206604,9.319046
1503530531435,0.14395142,-0.2399292,9.0215
1503530531444,0.13204956,-0.18756104,9.073868
1503530531454,0.14395142,-0.21612549,9.202408
1503530531464,0.23202515,-0.22802734,9.161942
1503530531474,0.19155884,-0.20898438,9.135757
1503530531484,0.19869995,-0.24945068,9.119095
1503530531494,0.19631958,-0.21136475,9.1167145
1503530531504,0.21298218,-0.22088623,9.078629
1503530531513,0.15823364,-0.23040771,9.133377
1503530531523,0.120147705,-0.21612549,9.114334
1503530531533,0.19155884,-0.21850586,9.073868
1503530531543,0.20108032,-0.206604,9.069107
1503530531553,0.14633179,-0.20184326,9.083389
1503530531562,0.16775513,-0.22564697,9.095291
1503530531572,0.1867981,-0.20898438,9.192886
1503530531582,0.17727661,-0.1899414,9.157181
1503530531592,0.20822144,-0.23040771,9.08577
1503530531602,0.18917847,-0.25421143,8.985794
1503530531611,0.2106018,-0.19708252,9.15004
1503530531622,0.1701355,-0.2232666,9.128616
1503530531632,0.19393921,-0.22802734,9.092911
1503530531641,0.1701355,-0.21374512,9.064346
1503530531651,0.20584106,-0.2399292,9.123856
1503530531661,0.18203735,-0.2232666,9.092911
1503530531671,0.14395142,-0.21850586,9.104813
1503530531681,0.18441772,-0.21612549,9.178604
1503530531691,0.12728882,-0.25183105,9.119095
1503530531700,0.18917847,-0.2232666,9.1548
1503530531710,0.14633179,-0.25183105,9.059586
1503530531720,0.2106018,-0.20898438,9.119095
1503530531730,0.19393921,-0.24468994,9.08815
1503530531739,0.19631958,-0.1661377,9.173843
1503530531750,0.20108032,-0.25897217,9.123856
1503530531760,0.14871216,-0.19232178,9.0976715
1503530531769,0.17727661,-0.21612549,9.121475
1503530531780,0.14395142,-0.17565918,9.121475
1503530531789,0.1368103,-0.21850586,9.133377
1503530531799,0.19631958,-0.24707031,9.109573
1503530531809,0.16061401,-0.25183105,9.0976715
1503530531818,0.20822144,-0.23040771,9.095291
1503530531828,0.14871216,-0.22088623,9.0334015
1503530531838,0.22488403,-0.24945068,9.123856
1503530531848,0.15109253,-0.21850586,9.15004
1503530531858,0.17489624,-0.24945068,9.185745
1503530531868,0.18203735,-0.206604,9.145279
1503530531877,0.18441772,-0.20422363,9.107193
1503530531888,0.18203735,-0.206604,9.081009
1503530531897,0.19155884,-0.23040771,9.095291
1503530531907,0.18917847,-0.20422363,9.238113
1503530531917,0.17965698,-0.19470215,9.15004
1503530531927,0.17727661,-0.20898438,9.111954
1503530531937,0.15823364,-0.20898438,9.035782
1503530531947,0.1534729,-0.27801514,9.047684
1503530531957,0.1867981,-0.22088623,9.1167145
1503530531967,0.19155884,-0.22088623,9.081009
1503530531976,0.16537476,-0.19946289,9.140518
1503530531986,0.1867981,-0.24468994,9.138138
1503530531996,0.16061401,-0.19232178,9.128616
1503530532006,0.2106018,-0.25183105,9.142899
1503530532015,0.1701355,-0.21374512,9.185745
1503530532025,0.18441772,-0.2232666,9.104813
1503530532035,0.12490845,-0.19232178,9.102432
1503530532045,0.1701355,-0.21850586,9.15242
1503530532055,0.16775513,-0.23754883,9.078629
1503530532065,0.19631958,-0.21850586,9.100052
1503530532074,0.1701355,-0.21374512,9.076248
1503530532084,0.2034607,-0.21374512,9.107193
1503530532094,0.17965698,-0.22088623,9.076248
1503530532104,0.47244263,-0.14709473,10.256912
1503530532114,0.19631958,-0.28515625,9.397598
1503530532124,0.08206177,-0.16851807,9.176224
1503530532134,0.17489624,-0.22802734,9.147659
1503530532143,0.23202515,-0.26849365,9.138138
1503530532154,0.17965698,-0.22088623,9.121475
1503530532164,0.19869995,-0.21850586,9.15004
1503530532173,0.14157104,-0.21136475,9.000076
1503530532183,0.11062622,-0.22802734,9.128616
1503530532193,0.17489624,-0.24230957,9.126236
1503530532203,0.13919067,-0.21136475,9.119095
1503530532212,0.18441772,-0.22802734,9.121475
1503530532222,0.12966919,-0.22564697,9.095291
1503530532233,0.14633179,-0.26135254,9.138138
1503530532243,0.2034607,-0.206604,9.140518
1503530532252,0.18203735,-0.22802734,9.08577
1503530532262,0.18203735,-0.19946289,9.133377
1503530532272,0.18917847,-0.24468994,9.126236
1503530532282,0.1368103,-0.21850586,9.1167145
1503530532291,0.1534729,-0.22802734,9.064346
1503530532301,0.17251587,-0.21374512,9.130997
1503530532311,0.19869995,-0.25897217,9.09053
1503530532321,0.18917847,-0.23754883,9.15242
1503530532330,0.19155884,-0.21850586,9.09053
1503530532340,0.18203735,-0.25897217,9.114334
1503530532351,0.15109253,-0.23040771,9.121475
1503530532361,0.1368103,-0.17327881,9.126236
1503530532371,0.17251587,-0.18756104,9.102432
1503530532380,0.16299438,-0.20422363,9.192886
1503530532390,0.18441772,-0.21612549,9.071487
1503530532400,0.14871216,-0.22802734,9.052444
1503530532410,0.1867981,-0.21136475,9.126236
1503530532419,0.15823364,-0.22564697,9.114334
1503530532429,0.18917847,-0.24707031,9.0976715
1503530532439,0.1534729,-0.23040771,9.102432
1503530532449,0.1867981,-0.23278809,9.069107
1503530532458,0.16299438,-0.22802734,9.08577
1503530532469,0.17727661,-0.2637329,9.0976715
1503530532479,0.20584106,-0.1899414,9.130997
1503530532489,0.16299438,-0.19470215,9.1809845
1503530532499,0.18441772,-0.20898438,9.164322
1503530532508,0.16537476,-0.1899414,9.121475
1503530532518,0.21774292,-0.2232666,9.123856
1503530532528,0.18203735,-0.19946289,9.166702
1503530532538,0.16299438,-0.22088623,9.15242
1503530532547,0.20584106,-0.17803955,9.157181
1503530532557,0.2106018,-0.24230957,9.0976715
1503530532567,0.12966919,-0.21850586,9.135757
1503530532577,0.17489624,-0.19470215,9.138138
1503530532587,0.16299438,-0.1899414,9.173843
1503530532597,0.17965698,-0.17565918,9.133377
1503530532607,0.17251587,-0.25183105,9.145279
1503530532617,0.1701355,-0.27563477,9.092911
1503530532627,0.19631958,-0.19470215,9.078629
1503530532636,0.20584106,-0.18518066,9.08815
1503530532646,0.16299438,-0.20422363,9.140518
1503530532656,0.15585327,-0.24468994,9.1167145
1503530532665,0.16775513,-0.18041992,9.138138
1503530532675,0.16537476,-0.2232666,9.109573
1503530532685,0.14633179,-0.22088623,9.164322
1503530532695,0.18203735,-0.2232666,9.133377
1503530532705,0.16775513,-0.21374512,9.166702
1503530532715,0.1867981,-0.26135254,9.104813
1503530532725,0.16537476,-0.19946289,9.1167145
1503530532735,0.1534729,-0.21374512,9.138138
1503530532745,0.14157104,-0.2732544,9.1167145
1503530532755,0.18441772,-0.23754883,9.126236
1503530532764,0.1867981,-0.20184326,9.1167145
1503530532775,0.1867981,-0.1899414,9.102432
1503530532784,0.19155884,-0.22802734,9.142899
1503530532794,0.23678589,-0.23754883,9.071487
1503530532804,0.21774292,-0.20898438,9.092911
1503530532813,0.15109253,-0.20184326,9.126236
1503530532823,0.14157104,-0.2399292,9.08815
1503530532833,0.19155884,-0.19232178,9.114334
1503530532843,0.1701355,-0.22802734,9.15242
1503530532852,0.16775513,-0.19946289,9.133377
1503530532863,0.1534729,-0.19232178,9.1809845
1503530532873,0.22012329,-0.1828003,9.135757
1503530532882,0.18917847,-0.20422363,9.138138
1503530532893,0.13919067,-0.23040771,9.073868
1503530532902,0.18441772,-0.21612549,9.095291
1503530532912,0.16299438,-0.21136475,9.123856
1503530532922,0.15823364,-0.22088623,9.126236
1503530532931,0.17251587,-0.19470215,9.107193
1503530532942,0.20108032,-0.20422363,9.123856
1503530532951,0.19631958,-0.17089844,9.095291
1503530532962,0.16299438,-0.19470215,9.157181
1503530532971,0.20108032,-0.1899414,9.08577
1503530532981,0.17251587,-0.2637329,9.204788
1503530532991,0.16775513,-0.25183105,9.164322
1503530533000,0.18203735,-0.206604,9.135757
1503530533011,0.12966919,-0.24707031,9.059586
1503530533021,0.1534729,-0.1828003,9.133377
1503530533030,0.13204956,-0.23278809,9.138138
1503530533040,0.4581604,-0.24707031,10.333084
1503530533050,0.19869995,-0.29467773,9.366653
1503530533060,0.051116943,-0.15423584,9.142899
1503530533069,0.16537476,-0.20898438,9.057205
1503530533079,0.28201294,-0.25183105,9.069107
1503530533090,0.16061401,-0.21612549,9.035782
1503530533098,0.17727661,-0.19470215,9.171463
1503530533109,0.1368103,-0.23516846,9.081009
1503530533119,0.19631958,-0.21612549,9.15004
1503530533129,0.14871216,-0.25897217,9.140518
1503530533139,0.18441772,-0.20184326,9.15004
1503530533148,0.16775513,-0.24945068,9.142899
1503530533158,0.16299438,-0.22088623,9.057205
1503530533168,0.18917847,-0.22564697,9.09053
1503530533178,0.19155884,-0.23278809,9.092911
1503530533188,0.22250366,-0.19232178,9.204788
1503530533198,0.19155884,-0.24945068,9.102432
1503530533208,0.21774292,-0.24230957,9.109573
1503530533217,0.13442993,-0.19470215,9.119095
1503530533228,0.21774292,-0.23516846,9.107193
1503530533238,0.16061401,-0.19946289,9.078629
1503530533247,0.19869995,-0.21612549,9.135757
1503530533257,0.16299438,-0.23278809,9.126236
1503530533267,0.20822144,-0.22802734,9.09053
1503530533277,0.18917847,-0.23040771,9.123856
1503530533286,0.17965698,-0.21374512,9.08815
1503530533297,0.19393921,-0.24468994,9.140518
1503530533306,0.16537476,-0.18756104,9.176224
1503530533316,0.17727661,-0.25897217,9.142899
1503530533325,0.22488403,-0.206604,9.1167145
1503530533335,0.11538696,-0.23040771,9.126236
1503530533345,0.19869995,-0.19708252,9.104813
1503530533355,0.18203735,-0.24707031,9.123856
1503530533365,0.15109253,-0.22088623,9.121475
1503530533375,0.16537476,-0.23516846,9.081009
1503530533385,0.19631958,-0.20898438,9.092911
1503530533395,0.1701355,-0.20184326,9.1167145
1503530533405,0.19393921,-0.24468994,9.092911
1503530533415,0.15585327,-0.23278809,9.104813
1503530533424,0.17489624,-0.22802734,9.147659
1503530533434,0.19155884,-0.22802734,9.09053
1503530533444,0.15585327,-0.13519287,9.08815
1503530533454,0.1701355,-0.22564697,9.171463
1503530533463,0.19155884,-0.25897217,9.159561
1503530533474,0.17727661,-0.22088623,9.15242
1503530533484,0.16537476,-0.24468994,9.073868
1503530533493,0.17251587,-0.2232666,9.08577
1503530533503,0.16299438,-0.20898438,9.104813
1503530533513,0.17251587,-0.1899414,9.09053
1503530533523,0.17489624,-0.18756104,9.123856
1503530533533,0.20584106,-0.18756104,9.15004
1503530533543,0.1867981,-0.21136475,9.1167145
1503530533552,0.15109253,-0.24707031,9.126236
1503530533562,0.22012329,-0.22088623,9.08577
1503530533572,0.17251587,-0.20898438,9.138138
1503530533582,0.20584106,-0.20184326,9.171463
1503530533591,0.14871216,-0.23516846,9.221451
1503530533601,0.16061401,-0.22088623,9.121475
1503530533611,0.18203735,-0.22802734,9.145279
1503530533621,0.18441772,-0.20898438,9.15242
1503530533631,0.19631958,-0.2232666,9.192886
1503530533641,0.15585327,-0.26135254,9.173843
1503530533651,0.20108032,-0.24230957,9.102432
1503530533660,0.1534729,-0.21612549,9.081009
1503530533670,0.19869995,-0.26611328,9.126236
1503530533680,0.17727661,-0.22802734,9.183365
1503530533690,0.19869995,-0.19708252,9.092911
1503530533700,0.1701355,-0.19946289,9.171463
1503530533710,0.18203735,-0.22088623,9.083389
1503530533720,0.20584106,-0.22564697,9.15242
1503530533729,0.18203735,-0.19708252,9.121475
1503530533739,0.19155884,-0.18756104,9.061966
1503530533749,0.17489624,-0.22564697,9.038162
1503530533759,0.18203735,-0.20422363,9.109573
1503530533769,0.16299438,-0.25421143,9.140518
1503530533779,0.14633179,-0.1828003,9.21431
1503530533788,0.20822144,-0.20898438,9.133377
1503530533798,0.19631958,-0.2232666,9.0976715
1503530533809,0.20822144,-0.2232666,9.15004
1503530533818,0.17251587,-0.2232666,9.123856
1503530533828,0.14871216,-0.23040771,9.188126
1503530533838,0.16775513,-0.2232666,9.166702
1503530533848,0.1867981,-0.1899414,9.126236
1503530533858,0.19393921,-0.21136475,9.104813
1503530533868,0.1867981,-0.21136475,9.1167145
1503530533878,0.19393921,-0.23278809,9.119095
1503530533887,0.20584106,-0.25421143,9.0976715
1503530533897,0.16537476,-0.20898438,9.08577
1503530533907,0.19869995,-0.21850586,9.083389
1503530533917,0.15823364,-0.17327881,9.09053
1503530533927,0.15585327,-0.20898438,9.08577
1503530533936,0.18917847,-0.20422363,9.164322
1503530533946,0.17489624,-0.19708252,9.104813
1503530533956,0.19393921,-0.21850586,9.126236
1503530533966,0.15109253,-0.21850586,9.121475
1503530533976,0.16775513,-0.22564697,9.076248
1503530533985,0.15823364,-0.20422363,9.142899
1503530533995,0.14633179,-0.21612549,9.107193
1503530534005,0.19155884,-0.18756104,9.138138
1503530534015,0.15823364,-0.2399292,9.123856
1503530534025,0.1701355,-0.25897217,9.138138
1503530534035,0.17727661,-0.2565918,9.111954
1503530534044,0.17965698,-0.19708252,9.081009
1503530534055,0.19155884,-0.22802734,9.164322
1503530534064,0.17965698,-0.23516846,9.100052
1503530534074,0.20584106,-0.26135254,9.114334
1503530534084,0.1534729,-0.2399292,9.126236
1503530534094,0.17727661,-0.19708252,9.109573
1503530534104,0.19155884,-0.21850586,9.135757
1503530534114,0.20822144,-0.23516846,9.102432
1503530534123,0.16775513,-0.25421143,9.133377
1503530534133,0.15109253,-0.26849365,9.100052
1503530534144,0.17251587,-0.23040771,9.08815
1503530534153,0.15823364,-0.21612549,9.130997
1503530534163,0.12490845,-0.25183105,9.092911
1503530534173,0.1867981,-0.23754883,9.130997
1503530534183,0.15109253,-0.22088623,9.130997
1503530534193,0.19631958,-0.19946289,9.100052
1503530534203,0.17251587,-0.19470215,9.130997
1503530534212,0.20584106,-0.22802734,9.09053
1503530534222,0.19155884,-0.23516846,9.0976715
1503530534231,0.20108032,-0.16137695,9.1548
1503530534242,0.17251587,-0.23754883,9.138138
1503530534252,0.13442993,-0.19946289,9.08577
1503530534262,0.1867981,-0.20898438,9.1167145
1503530534271,0.19869995,-0.1899414,9.128616
1503530534281,0.15585327,-0.25183105,9.09053
1503530534291,0.12490845,-0.1899414,9.161942
1503530534301,0.16775513,-0.23754883,9.130997
1503530534311,0.17251587,-0.23754883,9.104813
1503530534320,0.14395142,-0.16137695,9.095291
1503530534330,0.19631958,-0.16375732,9.095291
1503530534340,0.16061401,-0.20184326,9.121475
1503530534350,0.16299438,-0.19470215,9.035782
1503530534360,0.20108032,-0.21136475,9.107193
1503530534369,0.2106018,-0.206604,9.178604
1503530534380,0.22964478,-0.22564697,9.102432
1503530534389,0.18917847,-0.26849365,9.145279
1503530534399,0.16537476,-0.22564697,9.016739
1503530534409,0.1534729,-0.2399292,9.161942
1503530534419,0.16299438,-0.22564697,9.126236
1503530534429,0.2034607,-0.21374512,9.15004
1503530534439,0.17489624,-0.23278809,9.147659
1503530534449,0.16537476,-0.22564697,9.130997
1503530534458,0.17727661,-0.18041992,9.1167145
1503530534469,0.20584106,-0.21612549,9.102432
1503530534479,0.18441772,-0.21850586,9.161942
1503530534488,0.16537476,-0.22088623,9.107193
1503530534498,0.1867981,-0.22802734,9.054825
1503530534508,0.18917847,-0.21374512,9.123856
1503530534517,0.17489624,-0.27563477,9.111954
1503530534527,0.15585327,-0.20422363,9.1167145
1503530534538,0.18917847,-0.19708252,9.188126
1503530534547,0.17727661,-0.25421143,9.195267
1503530534557,0.18203735,-0.17565918,9.388077
1503530534566,0.16537476,-0.22088623,9.076248
1503530534577,0.18441772,-0.21136475,9.211929
1503530534587,0.18441772,-0.1828003,9.128616
1503530534596,0.17965698,-0.20184326,9.1167145
1503530534607,0.18917847,-0.21136475,9.121475
1503530534616,0.22488403,-0.24707031,9.1548
1503530534626,0.17965698,-0.21136475,9.052444
1503530534636,0.15585327,-0.24230957,9.064346
1503530534646,0.19869995,-0.21612549,9.147659
1503530534656,0.18917847,-0.2232666,9.107193
1503530534666,0.20108032,-0.22564697,9.100052
1503530534675,0.17727661,-0.206604,9.092911
1503530534685,0.23440552,-0.1828003,9.08815
1503530534695,0.17251587,-0.23040771,9.126236
1503530534704,0.20108032,-0.20184326,9.1167145
1503530534714,0.17489624,-0.27801514,9.109573
1503530534724,0.17727661,-0.20422363,9.171463
1503530534735,0.16299438,-0.1828003,9.111954
1503530534744,0.15109253,-0.23754883,9.128616
1503530534754,0.19155884,-0.20184326,9.140518
1503530534764,0.19631958,-0.23040771,9.095291
1503530534774,0.19631958,-0.25897217,9.104813
1503530534784,0.14157104,-0.21136475,9.076248
1503530534793,0.17965698,-0.21850586,9.169083
1503530534803,0.1701355,-0.23278809,9.128616
1503530534813,0.1534729,-0.2399292,9.08815
1503530534823,0.15585327,-0.18518066,9.183365
1503530534832,0.1534729,-0.23040771,9.073868
1503530534842,0.15109253,-0.19232178,9.164322
1503530534852,0.15585327,-0.2399292,9.21669
1503530534862,0.20584106,-0.22088623,9.147659
1503530534872,0.18203735,-0.21850586,9.133377
1503530534882,0.17251587,-0.22088623,9.073868
1503530534891,0.16061401,-0.206604,9.08815
1503530534902,0.17489624,-0.22564697,9.15242
1503530534912,0.19631958,-0.21136475,9.130997
1503530534921,0.20584106,-0.2565918,9.114334
1503530534931,0.16537476,-0.21136475,9.107193
1503530534941,0.18203735,-0.19708252,9.107193
1503530534950,0.16299438,-0.206604,9.057205
1503530534961,0.16775513,-0.23754883,9.0976715
1503530534971,0.18203735,-0.25183105,9.059586
1503530534981,0.22488403,-0.17089844,9.121475
1503530534990,0.14871216,-0.22802734,9.169083
1503530535000,0.14633179,-0.206604,9.178604
1503530535010,0.14633179,-0.21850586,9.104813
1503530535020,0.16775513,-0.21136475,9.121475
1503530535030,0.17251587,-0.24945068,9.092911
1503530535040,0.17965698,-0.26849365,9.185745
1503530535049,0.14871216,-0.22088623,9.061966
1503530535059,0.19631958,-0.21850586,9.138138
1503530535069,0.16537476,-0.19232178,9.1167145
1503530535079,0.18917847,-0.2399292,9.109573
1503530535089,0.1368103,-0.19232178,9.102432
1503530535099,0.15109253,-0.24468994,9.169083
1503530535109,0.18917847,-0.22564697,9.09053
1503530535118,0.17965698,-0.22802734,9.15242
1503530535128,0.2034607,-0.19708252,9.083389
1503530535138,0.18203735,-0.20898438,9.15242
1503530535147,0.19155884,-0.21612549,9.109573
1503530535158,0.17965698,-0.2232666,9.157181
1503530535168,0.17489624,-0.24468994,9.038162
1503530535177,0.20108032,-0.21612549,9.145279
1503530535187,0.1867981,-0.22802734,9.15242
1503530535197,0.22012329,-0.20184326,9.071487
1503530535207,0.16061401,-0.16851807,9.135757
1503530535216,0.1867981,-0.27563477,9.095291
1503530535227,0.14871216,-0.20422363,9.128616
1503530535236,0.15109253,-0.21374512,9.102432
1503530535246,0.15823364,-0.19232178,9.223831
1503530535256,0.18441772,-0.23278809,9.08815
1503530535266,0.18203735,-0.25183105,9.076248
1503530535276,0.23440552,-0.21612549,9.123856
1503530535286,0.17965698,-0.24945068,9.138138
1503530535296,0.19869995,-0.20422363,9.123856
1503530535305,0.2034607,-0.20898438,9.128616
1503530535315,0.23678589,-0.22802734,9.09053
1503530535326,0.16299438,-0.1899414,9.135757
1503530535335,0.19631958,-0.22564697,9.1809845
1503530535345,0.2034607,-0.2232666,9.147659
1503530535355,0.15109253,-0.23754883,9.064346
1503530535365,0.17251587,-0.19946289,9.123856
1503530535374,0.15585327,-0.22088623,9.126236
1503530535384,0.15823364,-0.25183105,9.047684
1503530535394,0.1701355,-0.19232178,9.130997
1503530535404,0.15823364,-0.24707031,9.121475
1503530535414,0.15585327,-0.23754883,9.128616
1503530535424,0.15585327,-0.21850586,9.133377
1503530535433,0.15823364,-0.24707031,9.138138
1503530535443,0.19393921,-0.19946289,9.061966
1503530535453,0.2034607,-0.24945068,9.138138
1503530535463,0.1534729,-0.21850586,9.15004
1503530535473,0.13919067,-0.23040771,9.08815
1503530535482,0.18441772,-0.19708252,9.145279
1503530535492,0.16775513,-0.21612549,9.109573
1503530535502,0.19155884,-0.23516846,9.104813
1503530535512,0.13919067,-0.21374512,9.119095
1503530535522,0.13442993,-0.23754883,9.09053
1503530535532,0.19631958,-0.206604,9.081009
1503530535542,0.17489624,-0.21374512,9.1167145
1503530535552,0.2034607,-0.19232178,9.09053
1503530535561,0.14157104,-0.20422363,9.104813
1503530535571,0.21774292,-0.17565918,9.121475
1503530535581,0.19631958,-0.21850586,9.200027
1503530535591,0.1867981,-0.20422363,9.109573
1503530535600,0.17489624,-0.20422363,9.145279
1503530535610,0.13204956,-0.24945068,9.128616
1503530535620,0.17251587,-0.24230957,9.145279
1503530535631,0.20822144,-0.18756104,9.138138
1503530535640,0.2106018,-0.23278809,9.171463
1503530535650,0.19155884,-0.23754883,9.095291
1503530535660,0.12728882,-0.19470215,9.164322
1503530535670,0.19393921,-0.206604,9.128616
1503530535679,0.17965698,-0.17565918,9.178604
1503530535690,0.1701355,-0.24468994,9.064346
1503530535699,0.2034607,-0.21850586,9.100052
1503530535709,0.15585327,-0.27087402,9.095291
1503530535719,0.17251587,-0.15899658,9.104813
1503530535728,0.2034607,-0.19708252,9.126236
1503530535738,0.18441772,-0.23754883,9.130997
1503530535749,0.2106018,-0.23040771,9.183365
1503530535758,0.1701355,-0.24230957,9.109573
1503530535768,0.16061401,-0.22802734,9.121475
1503530535778,0.18441772,-0.21612549,9.104813
1503530535788,0.17727661,-0.17803955,9.15004
1503530535798,0.17727661,-0.23040771,9.1167145
1503530535808,0.19155884,-0.21612549,9.095291
1503530535818,0.18441772,-0.23040771,9.038162
1503530535827,0.17727661,-0.23278809,9.121475
1503530535837,0.21774292,-0.23040771,9.159561
1503530535847,0.1368103,-0.23278809,9.15004
1503530535857,0.1701355,-0.21374512,9.15004
1503530535867,0.16061401,-0.21850586,9.092911
1503530535877,0.13919067,-0.20898438,9.114334
1503530535887,0.19869995,-0.19946289,9.104813
1503530535897,0.17727661,-0.21136475,9.161942
1503530535907,0.14157104,-0.20898438,9.1809845
1503530535916,0.14157104,-0.19946289,9.061966
1503530535926,0.17727661,-0.21850586,9.130997
1503530535936,0.19155884,-0.1899414,9.166702
1503530535946,0.16299438,-0.22564697,9.119095
1503530535956,0.2106018,-0.23040771,9.142899
1503530535965,0.16537476,-0.2399292,9.083389
1503530535975,0.17251587,-0.20422363,9.145279
1503530535985,0.16299438,-0.24230957,9.1167145
1503530535995,0.19393921,-0.24468994,9.102432
1503530536005,0.22012329,-0.20422363,9.08577
1503530536015,0.18441772,-0.21612549,9.109573
1503530536025,0.15109253,-0.2565918,9.240494
1503530536034,0.15109253,-0.17803955,9.109573
1503530536044,0.2106018,-0.2399292,9.138138
1503530536054,0.17251587,-0.19946289,9.159561
1503530536064,0.19155884,-0.23754883,9.102432
1503530536074,0.19869995,-0.206604,9.161942
1503530536084,0.16537476,-0.20184326,9.123856
1503530536093,0.22250366,-0.24707031,9.081009
1503530536103,0.18441772,-0.24230957,9.081009
1503530536113,0.20822144,-0.22088623,9.109573
1503530536123,0.20584106,-0.21612549,9.069107
1503530536133,0.18917847,-0.21612549,9.102432
1503530536142,0.17251587,-0.2637329,9.123856
1503530536152,0.1368103,-0.2399292,9.102432
1503530536162,0.20584106,-0.206604,9.08577
1503530536172,0.17489624,-0.19946289,9.1167145
1503530536182,0.1701355,-0.23754883,9.1809845
1503530536192,0.2272644,-0.26849365,9.15242
1503530536202,0.1701355,-0.23040771,9.138138
1503530536212,0.19869995,-0.19708252,9.133377
1503530536221,0.18917847,-0.21612549,9.104813
1503530536231,0.19155884,-0.21612549,9.169083
1503530536241,0.17965698,-0.22802734,9.171463
1503530536251,0.17489624,-0.25421143,9.157181
1503530536261,0.20584106,-0.21136475,9.123856
1503530536271,0.1867981,-0.18756104,9.121475
1503530536280,0.17251587,-0.18756104,9.15004
1503530536291,0.19869995,-0.2399292,9.095291
1503530536300,0.1534729,-0.24945068,9.138138
1503530536310,0.1368103,-0.21374512,9.119095
1503530536320,0.18917847,-0.21850586,9.135757
1503530536330,0.16537476,-0.206604,9.092911
1503530536340,0.15109253,-0.21612549,9.128616
1503530536350,0.16537476,-0.26135254,9.159561
1503530536360,0.16775513,-0.22088623,9.169083
1503530536369,0.21298218,-0.21612549,9.126236
1503530536379,0.17251587,-0.20898438,9.138138
1503530536389,0.1867981,-0.18756104,9.111954
1503530536399,0.17489624,-0.2565918,9.171463
1503530536409,0.2034607,-0.2232666,9.111954
1503530536418,0.18441772,-0.22802734,9.102432
1503530536428,0.15109253,-0.16851807,9.130997
1503530536438,0.12966919,-0.20898438,9.111954
1503530536448,0.19155884,-0.2232666,9.066727
1503530536458,0.17727661,-0.22088623,9.157181
1503530536467,0.16537476,-0.2399292,9.1548
1503530536478,0.19393921,-0.20184326,9.104813
1503530536487,0.20108032,-0.20898438,9.114334
1503530536497,0.19155884,-0.17327881,9.107193
1503530536507,0.20108032,-0.24707031,9.128616
1503530536517,0.19393921,-0.24707031,9.138138
1503530536527,0.17965698,-0.206604,9.235733
1503530536536,0.19631958,-0.22088623,9.15242
1503530536546,0.16061401,-0.2399292,9.083389
1503530536556,0.16775513,-0.23040771,9.119095
1503530536566,0.20822144,-0.206604,9.161942
1503530536576,0.1368103,-0.17565918,9.161942
1503530536586,0.15823364,-0.21850586,9.140518
1503530536595,0.16537476,-0.21850586,9.178604
1503530536605,0.19155884,-0.1899414,9.078629
1503530536615,0.19155884,-0.22802734,9.095291
1503530536625,0.17965698,-0.17327881,9.073868
1503530536635,0.15823364,-0.24230957,9.138138
1503530536645,0.21774292,-0.21850586,9.123856
1503530536655,0.1867981,-0.23516846,9.08815
1503530536664,0.15823364,-0.18041992,9.08815
1503530536674,0.1867981,-0.19470215,9.142899
1503530536684,0.20584106,-0.18041992,9.095291
1503530536694,0.16299438,-0.2232666,9.166702
1503530536704,0.16775513,-0.21374512,9.142899
1503530536713,0.14157104,-0.21612549,9.133377
1503530536724,0.21536255,-0.20898438,9.133377
1503530536733,0.17251587,-0.22802734,9.119095
1503530536743,0.14395142,-0.25183105,9.047684
1503530536753,0.1867981,-0.21850586,9.147659
1503530536763,0.17489624,-0.23040771,9.166702
1503530536773,0.20822144,-0.23040771,9.159561
1503530536783,0.21298218,-0.22088623,9.0976715
1503530536792,0.23440552,-0.23754883,9.166702
1503530536803,0.23202515,-0.22564697,9.1548
1503530536812,0.17489624,-0.18041992,9.135757
1503530536822,0.17727661,-0.17089844,9.159561
1503530536832,0.14633179,-0.206604,9.161942
1503530536842,0.13442993,-0.25183105,9.111954
1503530536852,0.20584106,-0.2232666,9.08815
1503530536861,0.19155884,-0.22564697,9.128616
1503530536871,0.17489624,-0.21136475,9.104813
1503530536881,0.12728882,-0.19708252,9.1167145
1503530536891,0.17965698,-0.23516846,9.119095
1503530536901,0.2106018,-0.19232178,9.109573
1503530536911,0.19869995,-0.20898438,9.121475
1503530536920,0.18441772,-0.20898438,9.119095
1503530536930,0.15109253,-0.22564697,9.111954
1503530536940,0.16775513,-0.206604,9.130997
1503530536950,0.17489624,-0.24468994,9.157181
1503530536960,0.17727661,-0.23754883,9.133377
1503530536969,0.17251587,-0.20898438,9.047684
1503530536980,0.17489624,-0.20898438,9.078629
1503530536989,0.14871216,-0.23754883,9.083389
1503530536999,0.14871216,-0.23278809,9.09053
1503530537009,0.20584106,-0.2232666,9.064346
1503530537019,0.1701355,-0.19946289,9.083389
1503530537029,0.17965698,-0.23754883,9.050064
1503530537039,0.17489624,-0.24468994,9.145279
1503530537048,0.16061401,-0.21850586,9.123856
1503530537058,0.18917847,-0.1899414,9.092911
1503530537068,0.14395142,-0.23754883,9.123856
1503530537078,0.19631958,-0.21850586,9.164322
1503530537088,0.15823364,-0.23516846,9.138138
1503530537098,0.22488403,-0.21136475,9.15004
1503530537107,0.16775513,-0.22088623,9.119095
1503530537117,0.22250366,-0.21136475,9.159561
1503530537127,0.15823364,-0.19946289,9.126236
1503530537138,0.16061401,-0.23754883,9.107193
1503530537147,0.13442993,-0.206604,9.197647
1503530537157,0.14871216,-0.22564697,9.169083
1503530537167,0.17489624,-0.21136475,9.140518
1503530537176,0.1534729,-0.21374512,9.121475
1503530537186,0.16061401,-0.22088623,9.123856
1503530537196,0.1701355,-0.21374512,9.123856
1503530537206,0.1701355,-0.21374512,9.135757
1503530537216,0.20108032,-0.22088623,9.157181
1503530537226,0.1701355,-0.23278809,9.052444
1503530537236,0.14633179,-0.21374512,9.111954
1503530537245,0.19393921,-0.23754883,9.08815
1503530537255,0.17489624,-0.23278809,9.109573
1503530537265,0.1701355,-0.20422363,9.1167145
1503530537275,0.18917847,-0.1899414,9.15242
1503530537285,0.18203735,-0.20898438,9.176224
1503530537295,0.1534729,-0.1828003,9.069107
1503530537304,0.16537476,-0.18518066,9.102432
1503530537314,0.20822144,-0.20184326,9.08815
1503530537324,0.17965698,-0.23516846,9.142899
1503530537334,0.14633179,-0.24230957,9.126236
1503530537344,0.18441772,-0.21850586,9.104813
1503530537354,0.16299438,-0.23754883,9.164322
1503530537364,0.15585327,-0.18041992,9.15242
1503530537373,0.15823364,-0.23040771,9.109573
1503530537383,0.15109253,-0.23754883,9.133377
1503530537393,0.13919067,-0.20184326,9.133377
1503530537403,0.19393921,-0.1899414,9.178604
1503530537413,0.20108032,-0.21374512,9.1809845
1503530537423,0.17251587,-0.24707031,9.031021
1503530537432,0.18203735,-0.2232666,9.133377
1503530537442,0.17251587,-0.23754883,9.164322
1503530537452,0.19869995,-0.22088623,9.042923
1503530537462,0.18441772,-0.18518066,9.0976715
1503530537472,0.18203735,-0.22802734,9.128616
1503530537481,0.13204956,-0.2232666,9.111954
1503530537492,0.17251587,-0.28277588,9.1167145
1503530537501,0.19869995,-0.28753662,9.361893
1503530537511,0.18441772,-0.02331543,9.0976715
1503530537521,0.22488403,-0.1494751,9.21907
1503530537531,0.14157104,-0.23278809,9.047684
1503530537541,0.039215088,-0.3232422,9.147659
1503530537551,0.19393921,-0.27087402,9.138138
1503530537561,0.24630737,-0.13519287,9.092911
1503530537571,0.21536255,-0.1899414,9.135757
1503530537581,0.11300659,-0.28277588,9.157181
1503530537590,0.1534729,-0.18518066,9.176224
1503530537600,0.18917847,-0.19232178,9.071487
1503530537610,0.17489624,-0.21612549,9.133377
1503530537620,0.18917847,-0.16851807,9.114334
1503530537629,0.20584106,-0.23040771,9.123856
1503530537639,0.18203735,-0.22564697,9.02626
1503530537649,0.10110474,-0.21612549,9.076248
1503530537659,0.19631958,-0.21612549,9.130997
1503530537669,0.19393921,-0.1828003,9.121475
1503530537679,0.16775513,-0.2803955,9.142899
1503530537689,0.17965698,-0.2565918,9.145279
1503530537698,0.1368103,-0.21850586,9.119095
1503530537708,0.17489624,-0.19470215,9.076248
1503530537718,0.17965698,-0.18518066,9.08815
1503530537728,0.14633179,-0.2232666,9.178604
1503530537738,0.16299438,-0.25897217,9.069107
1503530537748,0.15823364,-0.24707031,9.171463
1503530537757,0.22250366,-0.21374512,9.140518
1503530537767,0.20584106,-0.21612549,9.169083
1503530537777,0.14633179,-0.2399292,9.135757
1503530537787,0.17727661,-0.23040771,9.185745
1503530537797,0.18917847,-0.20898438,9.078629
1503530537806,0.1701355,-0.22088623,9.164322
1503530537817,0.21298218,-0.18518066,9.100052
1503530537827,0.17965698,-0.17327881,9.188126
1503530537837,0.13204956,-0.21374512,9.08577
1503530537846,0.21536255,-0.19708252,9.109573
1503530537856,0.17727661,-0.20184326,9.138138
1503530537866,0.17251587,-0.17327881,9.102432
1503530537876,0.16775513,-0.22088623,9.119095
1503530537886,0.18441772,-0.24230957,9.121475
1503530537896,0.14395142,-0.20898438,9.0976715
1503530537905,0.20584106,-0.19708252,9.164322
1503530537915,0.18441772,-0.22088623,9.176224
1503530537925,0.17727661,-0.20898438,9.09053
1503530537935,0.16061401,-0.22564697,9.0976715
1503530537945,0.13919067,-0.17327881,9.066727
1503530537954,0.17965698,-0.19232178,9.142899
1503530537964,0.18917847,-0.20898438,9.157181
1503530537974,0.18917847,-0.25183105,9.08577
1503530537984,0.1701355,-0.23516846,9.145279
1503530537994,0.1534729,-0.26135254,9.121475
1503530538003,0.17965698,-0.1828003,9.126236
1503530538013,0.2034607,-0.1899414,9.1167145
1503530538023,0.2034607,-0.21374512,9.1548
1503530538033,0.14871216,-0.21612549,9.130997
1503530538043,0.18203735,-0.24707031,9.0976715
1503530538053,0.19869995,-0.206604,9.135757
1503530538062,0.21298218,-0.22088623,9.142899
1503530538073,0.15823364,-0.24230957,9.185745
1503530538083,0.1701355,-0.22802734,9.08577
1503530538093,0.16775513,-0.21850586,9.109573
1503530538102,0.18441772,-0.19946289,9.21431
1503530538112,0.18441772,-0.22564697,9.078629
1503530538122,0.14633179,-0.23754883,9.1167145
1503530538132,0.19869995,-0.22564697,9.073868
1503530538142,0.13919067,-0.21850586,9.107193
1503530538151,0.17251587,-0.23516846,9.197647
1503530538161,0.17965698,-0.17565918,9.095291
1503530538171,0.14157104,-0.17565918,9.121475
1503530538181,0.1701355,-0.19470215,9.119095
1503530538191,0.14871216,-0.20898438,9.159561
1503530538201,0.18203735,-0.24230957,9.142899
1503530538211,0.22250366,-0.19232178,9.009598
1503530538220,0.20108032,-0.18518066,9.192886
1503530538230,0.18203735,-0.23754883,9.147659
1503530538240,0.21298218,-0.24707031,9.109573
1503530538250,0.18917847,-0.23040771,9.173843
1503530538259,0.19631958,-0.24707031,9.157181
1503530538269,0.17727661,-0.19946289,9.159561
1503530538279,0.19869995,-0.22564697,9.130997
1503530538289,0.15823364,-0.23040771,9.109573
1503530538299,0.15109253,-0.25183105,9.157181
1503530538309,0.16775513,-0.23754883,9.045303
1503530538319,0.12490845,-0.206604,9.159561
1503530538329,0.17251587,-0.21612549,9.107193
1503530538338,0.1534729,-0.24468994,9.08815
1503530538348,0.19393921,-0.206604,9.21431
1503530538358,0.16537476,-0.23516846,9.130997
1503530538368,0.17727661,-0.23040771,9.135757
1503530538378,0.16299438,-0.25897217,9.161942
1503530538388,0.19869995,-0.2232666,9.164322
1503530538398,0.1701355,-0.23040771,9.147659
1503530538408,0.18917847,-0.2637329,9.147659
1503530538417,0.15823364,-0.20184326,9.119095
1503530538427,0.17727661,-0.21850586,9.126236
1503530538437,0.17965698,-0.2232666,9.138138
1503530538447,0.16061401,-0.2565918,9.15004
1503530538457,0.18441772,-0.22564697,9.114334
1503530538467,0.15109253,-0.1828003,9.114334
1503530538476,0.12728882,-0.20422363,9.171463
1503530538486,0.1867981,-0.21612549,9.140518
1503530538496,0.17489624,-0.21136475,9.140518
1503530538506,0.15823364,-0.19232178,9.095291
1503530538516,0.19631958,-0.22564697,9.145279
1503530538526,0.12490845,-0.20898438,9.145279
1503530538535,0.18441772,-0.24468994,9.109573
1503530538545,0.17251587,-0.22088623,9.128616
1503530538555,0.17489624,-0.19232178,9.102432
1503530538565,0.1701355,-0.18041992,9.09053
1503530538575,0.16061401,-0.21850586,9.161942
1503530538585,0.1867981,-0.2232666,9.104813
1503530538595,0.17965698,-0.19708252,9.045303
1503530538605,0.18441772,-0.22802734,9.095291
1503530538614,0.1368103,-0.17089844,9.157181
1503530538624,0.20108032,-0.20898438,9.15242
1503530538634,0.18203735,-0.2399292,9.111954
1503530538644,0.19393921,-0.21374512,9.145279
1503530538654,0.1867981,-0.206604,9.119095
1503530538664,0.15823364,-0.24230957,9.081009
1503530538673,0.19631958,-0.19708252,9.111954
1503530538683,0.20108032,-0.26135254,9.140518
1503530538693,0.17489624,-0.21374512,9.109573
1503530538703,0.19155884,-0.21850586,9.095291
1503530538713,0.16061401,-0.22802734,9.133377
1503530538723,0.16775513,-0.22564697,9.083389
1503530538733,0.19869995,-0.2565918,9.123856
1503530538742,0.18203735,-0.22802734,9.123856
1503530538752,0.19631958,-0.19232178,9.111954
1503530538762,0.17489624,-0.2399292,9.126236
1503530538772,0.16537476,-0.25183105,9.1167145
1503530538781,0.19393921,-0.19232178,9.173843
1503530538792,0.16537476,-0.21374512,9.078629
1503530538801,0.15823364,-0.23516846,9.092911
1503530538811,0.16061401,-0.21850586,9.121475
1503530538821,0.1867981,-0.19946289,9.061966
1503530538831,0.14871216,-0.23754883,9.083389
1503530538841,0.2034607,-0.19470215,9.057205
1503530538850,0.17489624,-0.21850586,9.102432
1503530538860,0.16299438,-0.21136475,9.08815
1503530538870,0.18203735,-0.20898438,9.08577
1503530538880,0.16061401,-0.2232666,9.104813
1503530538890,0.19393921,-0.23278809,9.173843
1503530538900,0.18917847,-0.19470215,9.15004
1503530538910,0.17727661,-0.21374512,9.140518
1503530538920,0.15585327,-0.20184326,9.140518
1503530538929,0.14633179,-0.22088623,9.178604
1503530538939,0.17489624,-0.21374512,9.145279
1503530538949,0.13204956,-0.2399292,9.176224
1503530538959,0.18203735,-0.19708252,9.15242
1503530538969,0.2034607,-0.2399292,9.128616
1503530538978,0.1867981,-0.19946289,9.133377
1503530538988,0.1867981,-0.2232666,9.0976715
1503530538998,0.18441772,-0.23754883,9.164322
1503530539008,0.18917847,-0.23516846,9.15242
1503530539018,0.16299438,-0.20422363,9.159561
1503530539028,0.16061401,-0.2232666,9.076248
1503530539038,0.14157104,-0.23516846,9.188126
1503530539048,0.14395142,-0.23516846,9.102432
1503530539058,0.20584106,-0.26849365,9.200027
1503530539067,0.16775513,-0.22802734,9.140518
1503530539077,0.20108032,-0.19946289,9.135757
1503530539086,0.1701355,-0.19708252,9.130997
1503530539097,0.19869995,-0.22802734,9.147659
1503530539106,0.1368103,-0.24707031,9.107193
1503530539116,0.1867981,-0.19232178,9.135757
1503530539127,0.18203735,-0.1899414,9.142899
1503530539136,0.2272644,-0.21612549,9.102432
1503530539146,0.19631958,-0.23516846,9.102432
1503530539156,0.19393921,-0.21612549,9.100052
1503530539165,0.16775513,-0.23278809,9.159561
1503530539176,0.22250366,-0.21374512,9.092911
1503530539185,0.14633179,-0.22802734,9.15004
1503530539195,0.19393921,-0.16851807,9.119095
1503530539205,0.16299438,-0.1899414,9.130997
1503530539215,0.16061401,-0.18518066,9.121475
1503530539225,0.17727661,-0.1828003,9.157181
1503530539235,0.18917847,-0.19946289,9.107193
1503530539245,0.18917847,-0.21850586,9.054825
1503530539255,0.16299438,-0.206604,9.142899
1503530539264,0.19631958,-0.21612549,9.09053
1503530539274,0.16537476,-0.22564697,9.126236
1503530539284,0.17251587,-0.22802734,9.069107
1503530539293,0.1867981,-0.22564697,9.135757
1503530539304,0.14633179,-0.23516846,9.119095
1503530539313,0.1701355,-0.1899414,9.123856
1503530539323,0.17727661,-0.19946289,9.15242
1503530539333,0.1534729,-0.22564697,9.083389
1503530539343,0.18917847,-0.23516846,9.069107
1503530539353,0.17965698,-0.20184326,9.038162
1503530539363,0.18203735,-0.2232666,9.09053
1503530539373,0.14157104,-0.19946289,9.050064
1503530539382,0.19393921,-0.19946289,9.15004
1503530539392,0.11062622,-0.21850586,9.1167145
1503530539402,0.15585327,-0.20422363,9.140518
1503530539412,0.16299438,-0.13519287,9.111954
1503530539422,0.21536255,-0.21136475,9.130997
1503530539432,0.17251587,-0.20184326,9.102432
1503530539441,0.15109253,-0.24468994,9.119095
1503530539451,0.16061401,-0.20422363,9.1167145
1503530539462,0.18441772,-0.20898438,9.073868
1503530539471,0.16775513,-0.23040771,9.126236
1503530539481,0.21774292,-0.20422363,9.104813
1503530539490,0.20822144,-0.2399292,9.1167145
1503530539501,0.1867981,-0.22802734,9.100052
1503530539511,0.17727661,-0.19708252,9.123856
1503530539520,0.19631958,-0.1899414,9.140518
1503530539530,0.17727661,-0.206604,9.119095
1503530539540,0.16061401,-0.23040771,9.0976715
1503530539549,0.15823364,-0.23516846,9.171463
1503530539559,0.16537476,-0.19232178,9.0976715
1503530539570,0.19393921,-0.22564697,9.166702
1503530539579,0.1368103,-0.19946289,9.195267
1503530539589,0.18441772,-0.21136475,9.130997
1503530539599,0.11300659,-0.18041992,9.128616
1503530539609,0.19393921,-0.23040771,9.15004
1503530539619,0.19393921,-0.206604,9.100052
1503530539629,0.19393921,-0.21612549,9.08577
1503530539638,0.19393921,-0.20422363,9.083389
1503530539648,0.14157104,-0.20422363,9.104813
1503530539658,0.16775513,-0.25421143,9.081009
1503530539668,0.17489624,-0.19470215,9.0976715
1503530539678,0.17727661,-0.21136475,9.173843
1503530539688,0.16537476,-0.19470215,9.1809845
1503530539697,0.15823364,-0.20422363,9.071487
1503530539707,0.17965698,-0.23516846,9.109573
1503530539717,0.13204956,-0.20898438,9.083389
1503530539727,0.14395142,-0.24230957,9.135757
1503530539737,0.20822144,-0.24707031,9.1809845
1503530539747,0.16061401,-0.23040771,9.119095
1503530539757,0.19869995,-0.19470215,9.178604
1503530539766,0.15585327,-0.2565918,9.100052
1503530539776,0.13442993,-0.22802734,9.15004
1503530539786,0.17251587,-0.27563477,9.064346
1503530539796,0.2106018,-0.20422363,9.092911
1503530539806,0.1867981,-0.25421143,9.126236
1503530539816,0.19869995,-0.21612549,9.1809845
1503530539826,0.18203735,-0.22802734,9.157181
1503530539835,0.20108032,-0.19232178,9.138138
1503530539845,0.1701355,-0.23516846,9.121475
1503530539855,0.17251587,-0.17565918,9.15004
1503530539865,0.14157104,-0.1828003,9.128616
1503530539875,0.20108032,-0.2232666,9.064346
1503530539884,0.15109253,-0.21374512,9.100052
1503530539894,0.15585327,-0.20422363,9.083389
1503530539904,0.17251587,-0.21136475,9.08815
1503530539914,0.14157104,-0.21136475,9.092911
1503530539924,0.17965698,-0.2732544,9.083389
1503530539934,0.16299438,-0.2399292,9.130997
1503530539944,0.18917847,-0.24945068,9.052444
1503530539954,0.19393921,-0.206604,9.08577
1503530539963,0.19155884,-0.21612549,9.195267
1503530539973,0.19155884,-0.24230957,9.135757
1503530539983,0.15109253,-0.22802734,9.142899
1503530539993,0.1867981,-0.21850586,9.1548
1503530540003,0.14871216,-0.22564697,9.15242
1503530540012,0.18917847,-0.23278809,9.1167145
1503530540023,0.16061401,-0.206604,9.083389
1503530540033,0.16299438,-0.2399292,9.159561
1503530540042,0.18917847,-0.23040771,9.130997
1503530540052,0.1368103,-0.20184326,9.157181
1503530540062,0.16299438,-0.21612549,9.057205
1503530540071,0.17727661,-0.23278809,9.104813
1503530540081,0.17965698,-0.2970581,9.100052
1503530540092,0.16061401,-0.21612549,9.076248
1503530540101,0.14871216,-0.2732544,9.126236
1503530540111,0.21774292,-0.17565918,9.192886
1503530540121,0.1867981,-0.16137695,9.1167145
1503530540131,0.19155884,-0.19232178,9.083389
1503530540141,0.15109253,-0.18756104,9.107193
1503530540151,0.13442993,-0.17803955,9.081009
1503530540160,0.14157104,-0.20422363,9.054825
1503530540170,0.15585327,-0.23040771,9.138138
1503530540180,0.2034607,-0.206604,9.140518
1503530540190,0.17727661,-0.22564697,9.114334
1503530540200,0.18441772,-0.2565918,9.119095
1503530540210,0.18917847,-0.24468994,9.178604
1503530540219,0.13919067,-0.16851807,9.126236
1503530540229,0.16299438,-0.2232666,9.166702
1503530540239,0.14395142,-0.19946289,9.147659
1503530540249,0.21298218,-0.18756104,9.140518
1503530540259,0.19869995,-0.1899414,9.128616
1503530540269,0.1701355,-0.23040771,9.114334
1503530540279,0.1534729,-0.24468994,9.15242
1503530540289,0.1701355,-0.16851807,9.069107
1503530540298,0.17965698,-0.24707031,9.028641
1503530540308,0.12490845,-0.21136475,9.223831
1503530540318,0.16775513,-0.206604,9.135757
1503530540328,0.17965698,-0.2565918,9.109573
1503530540338,0.1701355,-0.21850586,9.107193
1503530540348,0.18441772,-0.21136475,9.071487
1503530540357,0.1701355,-0.21136475,9.119095
1503530540367,0.18203735,-0.2232666,9.192886
1503530540377,0.19631958,-0.22564697,9.104813
1503530540387,0.18917847,-0.25421143,9.08815
1503530540397,0.1534729,-0.21136475,9.104813
1503530540407,0.18441772,-0.23040771,9.1167145
1503530540417,0.1534729,-0.206604,9.107193
1503530540427,0.18203735,-0.25897217,9.119095
1503530540436,0.17727661,-0.23516846,9.102432
1503530540446,0.17251587,-0.21374512,9.114334
1503530540456,0.18441772,-0.20184326,9.083389
1503530540465,0.20108032,-0.25183105,9.126236
1503530540475,0.1368103,-0.23040771,9.042923
1503530540485,0.18441772,-0.20184326,9.076248
1503530540495,0.16537476,-0.19946289,9.147659
1503530540505,0.2034607,-0.206604,9.083389
1503530540515,0.18203735,-0.23040771,9.183365
1503530540525,0.17489624,-0.22802734,9.157181
1503530540535,0.20822144,-0.24468994,9.102432
1503530540545,0.14633179,-0.21850586,9.016739
1503530540555,0.16299438,-0.23754883,9.140518
1503530540564,0.17727661,-0.21374512,9.069107
1503530540574,0.18203735,-0.24945068,9.15004
1503530540584,0.2106018,-0.23040771,9.09053
1503530540594,0.17251587,-0.23278809,9.123856
1503530540604,0.21298218,-0.20422363,9.159561
1503530540614,0.15823364,-0.19946289,9.102432
1503530540623,0.19155884,-0.19946289,9.073868
1503530540633,0.20584106,-0.21136475,9.1548
1503530540643,0.1867981,-0.2399292,9.08815
1503530540652,0.20108032,-0.24468994,9.02626
1503530540663,0.19631958,-0.2732544,9.173843
1503530540672,0.22488403,-0.20184326,9.09053
1503530540682,0.19631958,-0.21136475,9.133377
1503530540693,0.1701355,-0.24945068,9.0976715
1503530540702,0.1867981,-0.22564697,9.107193
1503530540712,0.13919067,-0.19708252,9.109573
1503530540722,0.18441772,-0.24230957,9.138138
1503530540732,0.15109253,-0.20184326,9.169083
1503530540741,0.19155884,-0.19946289,9.140518
1503530540751,0.17965698,-0.22564697,9.1167145
1503530540761,0.17251587,-0.21612549,9.08815
1503530540771,0.18203735,-0.17327881,9.111954
1503530540781,0.120147705,-0.18518066,9.145279
1503530540791,0.18441772,-0.26611328,9.092911
1503530540800,0.13919067,-0.26611328,9.145279
1503530540810,0.19155884,-0.2232666,9.095291
1503530540820,0.14871216,-0.20422363,9.107193
1503530540830,0.13204956,-0.20898438,9.111954
1503530540840,0.122528076,-0.21850586,9.133377
1503530540850,0.17965698,-0.23516846,9.123856
1503530540860,0.18441772,-0.23278809,9.100052
1503530540870,0.16299438,-0.19708252,9.111954
1503530540879,0.17727661,-0.25897217,9.161942
1503530540889,0.17251587,-0.19232178,9.197647
1503530540899,0.15823364,-0.22802734,9.195267
1503530540909,0.16061401,-0.22802734,9.173843
1503530540919,0.120147705,-0.24468994,9.092911
1503530540929,0.18917847,-0.22088623,9.164322
1503530540938,0.18441772,-0.25183105,9.114334
1503530540948,0.18203735,-0.22088623,9.08815
1503530540958,0.2034607,-0.21850586,9.173843
1503530540968,0.15109253,-0.21612549,9.171463
1503530540978,0.23440552,-0.22564697,9.15242
1503530540988,0.19869995,-0.19946289,9.102432
1503530540997,0.17489624,-0.22564697,9.0976715
1503530541007,0.17251587,-0.23040771,9.1548
1503530541017,0.16537476,-0.23516846,9.128616
1503530541027,0.17727661,-0.206604,9.135757
1503530541037,0.14633179,-0.19946289,9.100052
1503530541047,0.16775513,-0.23040771,9.111954
1503530541056,0.15109253,-0.24230957,9.045303
1503530541066,0.18203735,-0.19232178,9.121475
1503530541076,0.2034607,-0.2732544,9.066727
1503530541086,0.15109253,-0.23516846,9.08577
1503530541096,0.21536255,-0.22564697,9.1167145
1503530541106,0.1534729,-0.23754883,9.0976715
1503530541115,0.1701355,-0.21850586,9.147659
1503530541126,0.19393921,-0.23754883,9.081009
1503530541135,0.1701355,-0.23278809,9.092911
1503530541145,0.17251587,-0.22802734,9.081009
1503530541155,0.14871216,-0.24945068,9.164322
1503530541165,0.18441772,-0.23516846,9.1809845
1503530541175,0.2106018,-0.23040771,9.100052
1503530541185,0.17489624,-0.21850586,9.1167145
1503530541194,0.1701355,-0.19470215,9.142899
1503530541204,0.16299438,-0.20898438,9.083389
1503530541214,0.23916626,-0.19470215,9.171463
1503530541224,0.19155884,-0.23278809,9.095291
1503530541233,0.16537476,-0.19232178,9.185745
1503530541244,0.14395142,-0.23278809,9.083389
1503530541253,0.16775513,-0.24945068,9.09053
1503530541263,0.1867981,-0.24230957,9.142899
1503530541273,0.19393921,-0.20422363,9.135757
1503530541283,0.17489624,-0.22564697,9.104813
1503530541293,0.17727661,-0.20898438,9.161942
1503530541303,0.20108032,-0.23040771,9.066727
1503530541313,0.20822144,-0.206604,9.164322
1503530541322,0.2106018,-0.18041992,9.121475
1503530541332,0.2272644,-0.22564697,9.071487
1503530541342,0.13442993,-0.1828003,9.102432
1503530541352,0.19155884,-0.22564697,9.076248
1503530541362,0.18203735,-0.21612549,9.059586
1503530541372,0.16537476,-0.19946289,9.114334
1503530541382,0.1867981,-0.20898438,9.142899
1503530541391,0.18441772,-0.21850586,9.114334
1503530541401,0.17965698,-0.23516846,9.050064
1503530541411,0.18441772,-0.20422363,9.0976715
1503530541421,0.15823364,-0.25897217,9.1167145
1503530541431,0.14633179,-0.21612549,9.102432
1503530541441,0.1867981,-0.21850586,9.178604
1503530541450,0.2272644,-0.27087402,9.123856
1503530541460,0.14871216,-0.21136475,9.035782
1503530541470,0.2106018,-0.24707031,9.100052
1503530541481,0.18917847,-0.20184326,9.083389
1503530541490,0.1534729,-0.206604,9.164322
1503530541500,0.18441772,-0.25421143,9.123856
1503530541509,0.1701355,-0.24945068,9.157181
1503530541519,0.2034607,-0.2399292,9.095291
1503530541530,0.15823364,-0.2399292,9.140518
1503530541539,0.14633179,-0.18756104,9.142899
1503530541549,0.16299438,-0.21374512,9.061966
1503530541559,0.15823364,-0.23754883,9.092911
1503530541569,0.13919067,-0.20422363,9.061966
1503530541579,0.18203735,-0.21612549,9.15004
1503530541588,0.17965698,-0.21612549,9.111954
1503530541598,0.16537476,-0.20184326,9.130997
1503530541608,0.18441772,-0.21374512,9.123856
1503530541618,0.19869995,-0.24707031,9.111954
1503530541628,0.16299438,-0.23040771,9.08815
1503530541637,0.18917847,-0.22088623,9.0976715
1503530541647,0.16775513,-0.206604,9.071487
1503530541657,0.19155884,-0.24230957,9.159561
1503530541667,0.19155884,-0.20898438,9.08815
1503530541677,0.16299438,-0.24468994,9.061966
1503530541686,0.20108032,-0.23516846,9.119095
1503530541696,0.15823364,-0.22564697,9.104813
1503530541706,0.19393921,-0.19946289,9.147659
1503530541716,0.16537476,-0.1899414,9.145279
1503530541726,0.16775513,-0.25421143,9.161942
1503530541736,0.17489624,-0.18756104,9.121475
1503530541746,0.22488403,-0.22564697,9.078629
1503530541756,0.17251587,-0.20898438,9.138138
1503530541766,0.12490845,-0.19708252,9.128616
1503530541776,0.17727661,-0.26135254,9.140518
1503530541785,0.1701355,-0.24707031,9.169083
1503530541795,0.15823364,-0.26849365,9.200027
1503530541805,0.14157104,-0.21374512,9.145279
1503530541815,0.14395142,-0.20422363,9.069107
1503530541825,0.17251587,-0.2232666,9.061966
1503530541835,0.2034607,-0.24230957,9.126236
1503530541844,0.18441772,-0.24945068,9.142899
1503530541854,0.22012329,-0.21374512,9.0976715
1503530541864,0.15585327,-0.2232666,9.109573
1503530541874,0.2034607,-0.25897217,9.047684
1503530541884,0.17727661,-0.21850586,9.059586
1503530541894,0.18441772,-0.2232666,9.142899
1503530541903,0.19631958,-0.21850586,9.0976715
1503530541913,0.15823364,-0.20898438,9.109573
1503530541923,0.14633179,-0.26849365,9.1167145
1503530541933,0.17965698,-0.26611328,9.130997
1503530541943,0.21774292,-0.22802734,9.133377
1503530541953,0.19155884,-0.23278809,9.107193
1503530541963,0.23678589,-0.23754883,9.028641
1503530541973,0.1867981,-0.22088623,9.102432
1503530541982,0.1701355,-0.20898438,9.104813
1503530541992,0.16299438,-0.22564697,9.09053
1503530542002,0.1867981,-0.206604,9.15242
1503530542012,0.18441772,-0.26135254,9.119095
1503530542022,0.16061401,-0.19946289,9.123856
1503530542032,0.17489624,-0.22564697,9.078629
1503530542041,0.16775513,-0.2565918,9.133377
1503530542051,0.13919067,-0.19470215,9.173843
1503530542061,0.15109253,-0.20422363,9.135757
1503530542071,0.11538696,-0.21850586,9.169083
1503530542081,0.22250366,-0.19946289,9.064346
1503530542091,0.16061401,-0.18756104,9.066727
1503530542100,0.17727661,-0.2399292,9.107193
1503530542110,0.21298218,-0.21136475,9.176224
1503530542120,0.16299438,-0.21850586,9.15242
1503530542130,0.1534729,-0.22564697,9.145279
1503530542140,0.1701355,-0.21612549,9.21669
1503530542150,0.15585327,-0.21612549,9.128616
1503530542159,0.15823364,-0.1828003,9.138138
1503530542169,0.17727661,-0.23278809,9.157181
1503530542179,0.16061401,-0.18756104,9.095291
1503530542189,0.16537476,-0.21850586,9.1167145
1503530542199,0.20108032,-0.2399292,9.100052
1503530542209,0.19393921,-0.23754883,9.08577
1503530542219,0.17965698,-0.23278809,9.102432
1503530542228,0.17251587,-0.23278809,9.119095
1503530542238,0.1368103,-0.18518066,9.064346
1503530542248,0.1867981,-0.19708252,9.107193
1503530542258,0.20108032,-0.23516846,9.15004
1503530542268,0.20108032,-0.2803955,9.104813
1503530542277,0.18203735,-0.23040771,9.130997
1503530542287,0.17251587,-0.25421143,9.08577
1503530542297,0.16775513,-0.206604,9.123856
1503530542307,0.22012329,-0.20898438,9.221451
1503530542317,0.20822144,-0.21850586,9.128616
1503530542327,0.1701355,-0.19708252,9.104813
1503530542337,0.19155884,-0.25897217,9.185745
1503530542346,0.15585327,-0.21374512,9.02626
1503530542356,0.16537476,-0.20898438,9.135757
1503530542366,0.14395142,-0.22802734,9.114334
1503530542376,0.14395142,-0.23040771,9.09053
1503530542386,0.20822144,-0.19708252,9.02388
1503530542396,0.16299438,-0.22802734,9.126236
1503530542406,0.17489624,-0.20898438,9.161942
1503530542415,0.16775513,-0.2565918,9.121475
1503530542425,0.13919067,-0.2399292,9.064346
1503530542435,0.2106018,-0.24230957,9.111954
1503530542445,0.18203735,-0.2232666,9.081009
1503530542455,0.18917847,-0.23516846,9.035782
1503530542465,0.18917847,-0.2399292,9.050064
1503530542475,0.2106018,-0.19708252,9.095291
1503530542484,0.19869995,-0.2565918,9.121475
1503530542494,0.14871216,-0.21850586,9.08577
1503530542504,0.17965698,-0.2732544,9.166702
1503530542514,0.1534729,-0.22564697,9.126236
1503530542524,0.19631958,-0.22088623,9.123856
1503530542534,0.21536255,-0.21136475,9.076248
1503530542544,0.16299438,-0.16375732,9.069107
1503530542553,0.16061401,-0.21374512,9.15242
1503530542563,0.17489624,-0.20898438,9.15004
1503530542573,0.16061401,-0.20184326,9.142899
1503530542583,0.1701355,-0.21612549,9.126236
1503530542593,0.16061401,-0.23278809,9.107193
1503530542603,0.17727661,-0.23516846,9.1167145
1503530542613,0.16061401,-0.22802734,9.114334
1503530542622,0.21536255,-0.19232178,9.107193
1503530542632,0.15109253,-0.21136475,9.123856
1503530542642,0.18917847,-0.23278809,9.140518
1503530542652,0.14633179,-0.2232666,9.111954
1503530542662,0.1701355,-0.1899414,9.133377
1503530542671,0.2272644,-0.2399292,9.081009
1503530542681,0.19631958,-0.26135254,9.157181
1503530542691,0.18203735,-0.21612549,9.135757
1503530542702,0.16299438,-0.206604,9.069107
1503530542710,0.1867981,-0.22564697,9.052444
1503530542721,0.19869995,-0.19708252,9.121475
1503530542731,0.17489624,-0.24707031,9.135757
1503530542741,0.19155884,-0.20898438,9.111954
1503530542751,0.18203735,-0.2232666,9.164322
1503530542761,0.16775513,-0.24945068,9.188126
1503530542770,0.16537476,-0.22802734,9.0976715
1503530542780,0.22012329,-0.20422363,9.135757
1503530542789,0.19393921,-0.20184326,9.104813
1503530542799,0.16775513,-0.22564697,9.204788
1503530542810,0.20584106,-0.19946289,9.140518
1503530542819,0.16061401,-0.22564697,9.1809845
1503530542829,0.15585327,-0.206604,9.159561
1503530542839,0.18441772,-0.23040771,9.145279
1503530542849,0.18203735,-0.19946289,9.121475
1503530542859,0.18441772,-0.24468994,9.092911
1503530542869,0.18917847,-0.25421143,9.111954
1503530542878,0.17251587,-0.25183105,9.128616
1503530542888,0.1867981,-0.19946289,9.142899
1503530542898,0.1867981,-0.22802734,9.100052
1503530542908,0.18917847,-0.23040771,9.164322
1503530542918,0.14633179,-0.22564697,9.08577
1503530542928,0.14633179,-0.2399292,9.176224
1503530542938,0.17727661,-0.16851807,9.147659
1503530542947,0.16299438,-0.26135254,9.119095
1503530542957,0.18203735,-0.18041992,9.169083
1503530542967,0.15109253,-0.2232666,9.081009
1503530542977,0.17965698,-0.20898438,9.071487
1503530542987,0.14157104,-0.23754883,9.123856
1503530542997,0.20822144,-0.24230957,9.100052
1503530543006,0.14395142,-0.23516846,9.147659
1503530543017,0.21298218,-0.22802734,9.123856
1503530543026,0.17251587,-0.18041992,9.066727
1503530543036,0.22488403,-0.22088623,9.100052
1503530543046,0.17489624,-0.25421143,9.123856
1503530543056,0.15823364,-0.21374512,9.130997
1503530543066,0.19631958,-0.20898438,9.202408
1503530543075,0.14633179,-0.20898438,9.164322
1503530543085,0.17251587,-0.25421143,9.133377
1503530543095,0.14633179,-0.22088623,9.092911
1503530543105,0.1701355,-0.20422363,9.081009
1503530543115,0.2034607,-0.26849365,9.119095
1503530543125,0.19869995,-0.21850586,9.104813
1503530543135,0.16299438,-0.25183105,9.145279
1503530543144,0.19393921,-0.20184326,9.15004
1503530543154,0.17727661,-0.22802734,9.08815
1503530543164,0.16299438,-0.23754883,9.061966
1503530543174,0.16775513,-0.24945068,9.119095
1503530543184,0.16775513,-0.21374512,9.173843
1503530543193,0.1701355,-0.21374512,9.114334
1503530543204,0.16537476,-0.23040771,9.073868
1503530543213,0.17727661,-0.20898438,9.142899
1503530543223,0.16299438,-0.1899414,9.092911
1503530543233,0.1867981,-0.20422363,9.138138
1503530543243,0.17727661,-0.2232666,9.142899
1503530543253,0.16299438,-0.24945068,9.126236
1503530543262,0.17965698,-0.22802734,9.104813
1503530543272,0.14395142,-0.22088623,9.157181
1503530543282,0.19155884,-0.21374512,9.1167145
1503530543292,0.15109253,-0.21612549,9.133377
1503530543302,0.16537476,-0.18518066,9.133377
1503530543312,0.1534729,-0.19232178,9.078629
1503530543322,0.16537476,-0.20422363,9.061966
1503530543331,0.19869995,-0.21612549,9.130997
1503530543341,0.14395142,-0.23516846,9.119095
1503530543351,0.16775513,-0.23754883,9.066727
1503530543361,0.20584106,-0.26611328,9.119095
1503530543371,0.21774292,-0.23040771,9.123856
1503530543381,0.19631958,-0.25421143,9.121475
1503530543390,0.15109253,-0.22088623,9.081009
1503530543400,0.15823364,-0.26611328,9.135757
1503530543410,0.1701355,-0.206604,9.157181
1503530543420,0.16537476,-0.24468994,9.192886
1503530543430,0.16299438,-0.21136475,9.071487
1503530543440,0.14633179,-0.23040771,9.031021
1503530543450,0.19155884,-0.22564697,9.100052
1503530543460,0.15823364,-0.22088623,9.100052
1503530543469,0.18441772,-0.20184326,9.138138
1503530543479,0.17489624,-0.18041992,9.095291
1503530543489,0.14633179,-0.2565918,9.145279
1503530543498,0.20822144,-0.26611328,9.147659
1503530543509,0.1534729,-0.20184326,9.176224
1503530543519,0.2106018,-0.17565918,9.135757
1503530543528,0.20584106,-0.21136475,9.157181
1503530543538,0.17489624,-0.22088623,9.050064
1503530543548,0.16775513,-0.23040771,9.138138
1503530543558,0.1701355,-0.20898438,9.073868
1503530543568,0.16537476,-0.19946289,9.09053
1503530543577,0.17251587,-0.23516846,9.09053
1503530543587,0.17251587,-0.22564697,9.111954
1503530543597,0.18203735,-0.23754883,9.08577
1503530543607,0.16061401,-0.21612549,9.102432
1503530543617,0.18203735,-0.2232666,9.081009
1503530543627,0.19155884,-0.17089844,9.069107
1503530543636,0.16537476,-0.21850586,9.128616
1503530543647,0.14871216,-0.2232666,9.071487
1503530543657,0.18203735,-0.25183105,9.1548
1503530543666,0.16299438,-0.2232666,9.121475
1503530543676,0.17965698,-0.22088623,9.126236
1503530543686,0.16299438,-0.19470215,9.15004
1503530543695,0.14871216,-0.21136475,9.047684
1503530543706,0.17489624,-0.21612549,9.107193
1503530543716,0.1534729,-0.19946289,9.171463
1503530543726,0.16775513,-0.17803955,9.066727
1503530543735,0.1867981,-0.17565918,9.076248
1503530543745,0.17251587,-0.24945068,9.109573
1503530543755,0.1701355,-0.19232178,9.069107
1503530543765,0.15109253,-0.20422363,9.111954
1503530543774,0.19393921,-0.2232666,9.107193
1503530543785,0.15585327,-0.289917,9.08815
1503530543795,0.19155884,-0.19232178,9.057205
1503530543804,0.17251587,-0.18041992,9.1809845
1503530543814,0.17965698,-0.19470215,9.15004
1503530543824,0.16299438,-0.22564697,9.15242
1503530543834,0.17489624,-0.2232666,9.1167145
1503530543844,0.1867981,-0.25897217,9.119095
1503530543853,0.1701355,-0.20184326,9.135757
1503530543863,0.1701355,-0.21374512,9.104813
1503530543873,0.17965698,-0.20184326,9.15004
1503530543883,0.18917847,-0.24230957,9.073868
1503530543893,0.16299438,-0.21612549,9.123856
1503530543903,0.1701355,-0.19232178,9.054825
1503530543912,0.21298218,-0.2232666,9.064346
1503530543923,0.1701355,-0.18756104,9.08577
1503530543932,0.21536255,-0.2637329,9.121475
1503530543942,0.17489624,-0.24468994,9.176224
1503530543952,0.13204956,-0.2232666,9.178604
1503530543961,0.21536255,-0.22802734,9.073868
1503530543972,0.14633179,-0.206604,9.147659
1503530543982,0.18441772,-0.20184326,9.073868
1503530543992,0.19631958,-0.1828003,9.192886
1503530544001,0.16299438,-0.20184326,9.104813
1503530544011,0.16061401,-0.23278809,9.138138
1503530544021,0.16061401,-0.22088623,9.104813
1503530544031,0.18203735,-0.22802734,9.08577
1503530544041,0.20584106,-0.19946289,9.133377
1503530544050,0.15109253,-0.27801514,9.147659
1503530544060,0.19155884,-0.21136475,9.042923
1503530544070,0.1867981,-0.21374512,9.054825
1503530544079,0.17489624,-0.22088623,9.145279
1503530544089,0.16299438,-0.24707031,9.08577
1503530544099,0.20108032,-0.19470215,9.104813
1503530544109,0.1701355,-0.18518066,9.047684
1503530544119,0.19631958,-0.21612549,9.107193
1503530544129,0.16299438,-0.21850586,9.211929
1503530544139,0.19631958,-0.19946289,9.140518
1503530544149,0.19155884,-0.22564697,9.145279
1503530544158,0.15823364,-0.21374512,9.119095
1503530544169,0.19393921,-0.24945068,9.069107
1503530544178,0.14633179,-0.19470215,9.114334
1503530544188,0.16299438,-0.2232666,9.123856
1503530544198,0.19869995,-0.20422363,9.114334
1503530544208,0.21298218,-0.21136475,9.147659
1503530544218,0.15823364,-0.20898438,9.166702
1503530544228,0.12966919,-0.23754883,9.133377
1503530544238,0.16299438,-0.23516846,9.145279
1503530544248,0.18441772,-0.28277588,9.145279
1503530544257,0.18917847,-0.19708252,9.078629
1503530544267,0.16299438,-0.206604,9.109573
1503530544277,0.17489624,-0.23516846,9.08577
1503530544287,0.18441772,-0.23754883,9.138138
1503530544297,0.18203735,-0.1899414,9.08577
1503530544306,0.16299438,-0.18518066,9.128616
1503530544316,0.17251587,-0.20898438,9.161942
1503530544326,0.13919067,-0.23754883,9.083389
1503530544336,0.17489624,-0.23040771,9.128616
1503530544346,0.17251587,-0.2232666,9.104813
1503530544356,0.14871216,-0.21374512,9.095291
1503530544365,0.1867981,-0.206604,9.121475
1503530544375,0.17489624,-0.20184326,9.076248
1503530544386,0.17965698,-0.19470215,9.121475
1503530544395,0.16299438,-0.21612549,9.1167145
1503530544405,0.12490845,-0.2232666,9.147659
1503530544414,0.15823364,-0.21374512,9.104813
1503530544425,0.16775513,-0.25421143,9.059586
1503530544435,0.15823364,-0.25183105,9.104813
1503530544444,0.15585327,-0.21612549,9.102432
1503530544454,0.17965698,-0.23516846,9.071487
1503530544464,0.17489624,-0.23516846,9.133377
1503530544474,0.120147705,-0.23278809,9.159561
1503530544483,0.16775513,-0.19708252,9.183365
1503530544494,0.2034607,-0.20422363,9.042923
1503530544503,0.17489624,-0.22564697,9.078629
1503530544513,0.16061401,-0.21612549,9.100052
1503530544523,0.20584106,-0.20898438,9.09053
1503530544533,0.20584106,-0.21136475,9.064346
1503530544543,0.1867981,-0.2232666,9.142899
1503530544553,0.1867981,-0.20898438,9.076248
1503530544562,0.16775513,-0.26135254,9.104813
1503530544572,0.17251587,-0.21136475,9.102432
1503530544582,0.120147705,-0.25183105,9.064346
1503530544592,0.17251587,-0.24468994,9.095291
1503530544602,0.17251587,-0.21612549,9.1548
1503530544611,0.20108032,-0.24945068,9.111954
1503530544622,0.18441772,-0.17803955,9.059586
1503530544632,0.17727661,-0.2232666,9.076248
1503530544641,0.15823364,-0.23278809,9.130997
1503530544652,0.16537476,-0.23754883,9.100052
1503530544661,0.13919067,-0.206604,9.100052
1503530544671,0.17251587,-0.19470215,9.15242
1503530544681,0.20822144,-0.23516846,9.121475
1503530544690,0.15109253,-0.21612549,9.159561
1503530544700,0.17251587,-0.206604,9.164322
1503530544710,0.2106018,-0.22564697,9.107193
1503530544721,0.16775513,-0.19708252,9.073868
1503530544730,0.1534729,-0.19470215,9.08577
1503530544740,0.20108032,-0.22564697,9.157181
1503530544750,0.13204956,-0.21136475,9.190506
1503530544760,0.19631958,-0.2399292,9.1167145
1503530544769,0.17251587,-0.23516846,9.061966
1503530544779,0.1867981,-0.21850586,9.126236
1503530544789,0.19869995,-0.23516846,9.042923
1503530544799,0.16537476,-0.22802734,9.169083
1503530544808,0.18917847,-0.25183105,9.09053
1503530544819,0.17251587,-0.25897217,9.138138
1503530544828,0.17727661,-0.1899414,9.095291
1503530544839,0.20108032,-0.22088623,9.08577
1503530544848,0.17251587,-0.18518066,9.1167145
1503530544858,0.16299438,-0.2399292,9.138138
1503530544867,0.15109253,-0.19946289,9.081009
1503530544878,0.1867981,-0.26611328,9.081009
1503530544888,0.17965698,-0.2399292,9.076248
1503530544897,0.19631958,-0.25183105,9.095291
1503530544908,0.14871216,-0.2232666,9.121475
1503530544918,0.20822144,-0.21850586,9.128616
1503530544927,0.19155884,-0.23040771,9.164322
1503530544937,0.19393921,-0.2232666,9.185745
1503530544947,0.19155884,-0.23516846,9.109573
1503530544957,0.16537476,-0.22088623,9.123856
1503530544967,0.13442993,-0.21850586,9.119095
1503530544977,0.18203735,-0.23278809,9.092911
1503530544986,0.14395142,-0.19232178,9.100052
1503530544996,0.16299438,-0.17327881,9.142899
1503530545005,0.17251587,-0.21612549,9.133377
1503530545016,0.19393921,-0.26849365,9.161942
1503530545026,0.18441772,-0.22088623,9.15004
1503530545036,0.18441772,-0.23754883,9.054825
1503530545045,0.20584106,-0.18756104,9.057205
1503530545055,0.1867981,-0.1661377,9.102432
1503530545065,0.20584106,-0.23278809,9.128616
1503530545075,0.17965698,-0.19946289,9.126236
1503530545084,0.1534729,-0.24230957,9.123856
1503530545095,0.18917847,-0.23754883,9.121475
1503530545104,0.18203735,-0.20184326,9.128616
1503530545114,0.19631958,-0.21374512,9.047684
1503530545124,0.16775513,-0.2232666,9.114334
1503530545133,0.15823364,-0.2399292,9.171463
1503530545144,0.16775513,-0.21374512,9.128616
1503530545154,0.18441772,-0.19946289,9.147659
1503530545164,0.15823364,-0.17803955,9.052444
1503530545173,0.1867981,-0.22564697,9.171463
1503530545183,0.2034607,-0.25421143,9.069107
1503530545193,0.14157104,-0.24707031,9.164322
1503530545203,0.15585327,-0.24707031,9.102432
1503530545213,0.18203735,-0.17327881,9.100052
1503530545223,0.16537476,-0.20184326,9.138138
1503530545232,0.19631958,-0.18756104,9.0976715
1503530545242,0.14157104,-0.21612549,9.107193
1503530545252,0.14633179,-0.24707031,9.123856
1503530545262,0.16775513,-0.22088623,9.142899
1503530545272,0.21774292,-0.22802734,9.123856
1503530545281,0.16775513,-0.19232178,9.138138
1503530545291,0.12490845,-0.22564697,9.176224
1503530545301,0.17965698,-0.2232666,9.157181
1503530545311,0.20822144,-0.20184326,9.126236
1503530545321,0.18203735,-0.23040771,9.092911
1503530545331,0.15585327,-0.18756104,9.119095
1503530545340,0.2034607,-0.2399292,9.15242
1503530545351,0.17965698,-0.23278809,9.121475
1503530545360,0.17489624,-0.206604,9.114334
1503530545370,0.18203735,-0.23040771,9.109573
1503530545380,0.16537476,-0.21850586,9.123856
1503530545390,0.1534729,-0.29229736,9.102432
1503530545400,0.19869995,-0.20184326,9.135757
1503530545409,0.19869995,-0.19708252,9.081009
1503530545420,0.21774292,-0.18756104,9.107193
1503530545429,0.16299438,-0.1828003,9.133377
1503530545439,0.17251587,-0.25421143,9.1167145
1503530545449,0.1701355,-0.26849365,9.161942
1503530545459,0.15823364,-0.23040771,9.09053
1503530545468,0.18203735,-0.18756104,9.169083
1503530545478,0.17965698,-0.19946289,9.083389
1503530545488,0.12490845,-0.26135254,9.040543
1503530545498,0.16061401,-0.21374512,9.166702
1503530545508,0.17965698,-0.20422363,9.15242
1503530545518,0.19155884,-0.19708252,9.069107
1503530545528,0.18203735,-0.23040771,9.138138
1503530545537,0.19155884,-0.24945068,9.121475
1503530545547,0.15585327,-0.24468994,9.169083
1503530545557,0.14395142,-0.1899414,9.159561
1503530545567,0.16537476,-0.23516846,9.078629
1503530545577,0.19631958,-0.2565918,9.15004
1503530545587,0.16299438,-0.2637329,9.135757
1503530545597,0.1534729,-0.23754883,9.123856
1503530545606,0.19155884,-0.19470215,9.069107
1503530545616,0.18203735,-0.24230957,9.15004
1503530545626,0.17965698,-0.21374512,9.0976715
1503530545636,0.17489624,-0.19708252,9.052444
1503530545646,0.15823364,-0.23516846,9.107193
1503530545656,0.19631958,-0.23516846,9.111954
1503530545664,0.19869995,-0.23040771,9.071487
1503530545676,0.19631958,-0.2232666,9.092911
1503530545685,0.16299438,-0.20422363,9.176224
1503530545695,0.18203735,-0.23278809,9.147659
1503530545705,0.19155884,-0.2637329,9.08815
1503530545715,0.14157104,-0.1899414,9.142899
1503530545725,0.1867981,-0.18756104,9.081009
1503530545735,0.1701355,-0.22088623,9.126236
1503530545744,0.20822144,-0.2232666,9.100052
1503530545754,0.17489624,-0.21374512,9.092911
1503530545764,0.18203735,-0.2232666,9.073868
1503530545774,0.15109253,-0.22088623,9.145279
1503530545784,0.1701355,-0.206604,9.111954
1503530545794,0.2106018,-0.23754883,9.102432
1503530545804,0.1534729,-0.24468994,9.140518
1503530545814,0.19393921,-0.20184326,9.095291
1503530545823,0.1701355,-0.23754883,9.061966
1503530545833,0.16061401,-0.21850586,9.126236
1503530545843,0.18441772,-0.24468994,9.100052
1503530545853,0.16299438,-0.24230957,9.052444
1503530545863,0.21774292,-0.2399292,9.076248
1503530545872,0.1701355,-0.17565918,9.126236
1503530545882,0.16537476,-0.21850586,9.166702
1503530545892,0.15585327,-0.22564697,9.076248
1503530545902,0.21774292,-0.21850586,9.195267
1503530545912,0.17965698,-0.22802734,9.147659
1503530545922,0.14157104,-0.21850586,9.123856
1503530545932,0.1867981,-0.22088623,9.111954
1503530545942,0.17489624,-0.22564697,9.1548
1503530545951,0.19393921,-0.23278809,9.126236
1503530545961,0.19631958,-0.18041992,9.121475
1503530545971,0.19393921,-0.21136475,9.083389
1503530545981,0.15823364,-0.19946289,9.133377
1503530545991,0.14157104,-0.27563477,9.119095
1503530546001,0.17727661,-0.206604,9.159561
1503530546011,0.19155884,-0.22564697,9.08577
1503530546020,0.17251587,-0.24707031,9.092911
1503530546030,0.120147705,-0.206604,9.121475
1503530546040,0.2106018,-0.21850586,9.0976715
1503530546050,0.18441772,-0.21374512,9.09053
1503530546060,0.19631958,-0.20184326,9.164322
1503530546069,0.16061401,-0.206604,9.15004
1503530546079,0.21536255,-0.23516846,9.142899
1503530546089,0.1368103,-0.21850586,9.100052
1503530546099,0.19393921,-0.19232178,9.121475
1503530546109,0.1534729,-0.1899414,9.15242
1503530546119,0.18203735,-0.23278809,9.140518
1503530546128,0.1534729,-0.19232178,9.138138
1503530546138,0.1701355,-0.23516846,9.078629
1503530546148,0.16537476,-0.22564697,9.104813
1503530546158,0.1534729,-0.19946289,9.107193
1503530546168,0.17965698,-0.22802734,9.054825
1503530546177,0.14633179,-0.20422363,9.140518
1503530546187,0.19631958,-0.24468994,9.123856
1503530546197,0.17727661,-0.23278809,9.135757
1503530546207,0.18203735,-0.23754883,9.142899
1503530546217,0.1867981,-0.24945068,9.171463
1503530546227,0.18441772,-0.18756104,9.114334
1503530546237,0.17489624,-0.20422363,9.126236
1503530546247,0.19631958,-0.1661377,9.107193
1503530546257,0.15823364,-0.21136475,9.076248
1503530546266,0.17489624,-0.24468994,9.095291
1503530546276,0.14395142,-0.24707031,9.095291
1503530546286,0.17965698,-0.24707031,9.126236
1503530546296,0.15109253,-0.20898438,9.095291
1503530546306,0.19631958,-0.18518066,9.119095
1503530546316,0.19155884,-0.20898438,9.0976715
1503530546326,0.16061401,-0.23754883,9.104813
1503530546335,0.17251587,-0.22802734,9.121475
1503530546345,0.19631958,-0.24945068,9.140518
1503530546355,0.16775513,-0.23754883,9.054825
1503530546365,0.18917847,-0.23040771,9.02626
1503530546375,0.18917847,-0.1899414,9.15242
1503530546385,0.19869995,-0.206604,9.147659
1503530546394,0.17727661,-0.23278809,9.08577
1503530546404,0.18441772,-0.21850586,9.126236
1503530546414,0.1867981,-0.23754883,9.171463
1503530546424,0.1701355,-0.22088623,9.169083
1503530546434,0.14633179,-0.21612549,9.09053
1503530546444,0.15823364,-0.23516846,9.15242
1503530546453,0.16775513,-0.21612549,9.061966
1503530546463,0.18441772,-0.17565918,9.15004
1503530546473,0.19869995,-0.20898438,9.047684
1503530546483,0.15585327,-0.22088623,9.123856
1503530546493,0.1701355,-0.22564697,9.1548
1503530546502,0.19393921,-0.20422363,9.050064
1503530546513,0.17965698,-0.1899414,9.138138
1503530546522,0.19869995,-0.21612549,9.08815
1503530546532,0.17965698,-0.21612549,9.111954
1503530546542,0.18203735,-0.24707031,9.0976715
1503530546552,0.13919067,-0.20184326,9.100052
1503530546562,0.17251587,-0.22564697,9.109573
1503530546572,0.19393921,-0.2399292,9.121475
1503530546581,0.15823364,-0.20422363,9.1167145
1503530546591,0.20822144,-0.24468994,9.111954
1503530546601,0.18917847,-0.16375732,9.1167145
1503530546611,0.19631958,-0.22088623,9.104813
1503530546621,0.1701355,-0.22802734,9.114334
1503530546630,0.1701355,-0.21612549,9.08815
1503530546640,0.15585327,-0.21850586,9.128616
1503530546650,0.20584106,-0.23040771,9.069107
1503530546660,0.19155884,-0.23278809,9.119095
1503530546670,0.1867981,-0.22088623,9.0976715
1503530546680,0.1701355,-0.20898438,9.08577
1503530546690,0.17251587,-0.21374512,9.126236
1503530546700,0.18441772,-0.20898438,9.104813
1503530546709,0.1867981,-0.26849365,9.069107
1503530546719,0.19631958,-0.206604,9.159561
1503530546729,0.14395142,-0.25183105,9.157181
1503530546739,0.17965698,-0.21374512,9.161942
1503530546749,0.21298218,-0.20898438,9.123856
1503530546759,0.18203735,-0.22802734,9.147659
1503530546768,0.13442993,-0.19708252,9.161942
1503530546778,0.14871216,-0.24707031,9.130997
1503530546788,0.15823364,-0.19946289,9.123856
1503530546798,0.16299438,-0.23754883,9.109573
1503530546808,0.13442993,-0.22802734,9.08577
1503530546818,0.16061401,-0.22088623,9.123856
1503530546827,0.20822144,-0.24468994,9.15004
1503530546837,0.16061401,-0.21136475,9.126236
1503530546847,0.1867981,-0.23754883,9.08815
1503530546857,0.15109253,-0.24230957,9.209549
1503530546867,0.17727661,-0.1899414,9.111954
1503530546877,0.20822144,-0.22088623,9.133377
1503530546886,0.19155884,-0.21612549,9.069107
1503530546896,0.1534729,-0.17327881,9.035782
1503530546906,0.1867981,-0.18041992,9.09053
1503530546916,0.16299438,-0.20422363,9.083389
1503530546926,0.16537476,-0.206604,9.145279
1503530546936,0.16061401,-0.27801514,9.130997
1503530546946,0.18203735,-0.24707031,9.08815
1503530546956,0.17251587,-0.19232178,9.123856
1503530546966,0.17489624,-0.24707031,9.123856
1503530546976,0.17251587,-0.22802734,9.1548
1503530546985,0.17727661,-0.23754883,9.121475
1503530546995,0.16299438,-0.206604,9.092911
1503530547005,0.15109253,-0.19232178,9.066727
1503530547015,0.18441772,-0.23754883,9.071487
1503530547025,0.16537476,-0.1899414,9.107193
1503530547035,0.18203735,-0.17803955,9.166702
1503530547044,0.16299438,-0.2232666,9.107193
1503530547055,0.17965698,-0.19470215,9.083389
1503530547064,0.15109253,-0.19232178,9.109573
1503530547074,0.1701355,-0.20898438,9.147659
1503530547084,0.16299438,-0.206604,9.09053
1503530547094,0.19393921,-0.21374512,9.095291
1503530547104,0.17251587,-0.19708252,9.052444
1503530547113,0.18441772,-0.18518066,9.08577
1503530547123,0.22250366,-0.20184326,9.128616
1503530547133,0.21536255,-0.21374512,9.200027
1503530547143,0.19631958,-0.18041992,9.188126
1503530547153,0.2106018,-0.23278809,9.08815
1503530547163,0.18441772,-0.21136475,9.1548
1503530547173,0.15585327,-0.24468994,9.173843
1503530547182,0.1534729,-0.22802734,9.197647
1503530547192,0.19869995,-0.20422363,9.123856
1503530547202,0.16061401,-0.2232666,9.1809845
1503530547211,0.18917847,-0.21612549,9.114334
1503530547221,0.120147705,-0.22564697,9.1167145
1503530547231,0.15585327,-0.206604,9.100052
1503530547241,0.21774292,-0.2565918,9.147659
1503530547251,0.19869995,-0.22802734,9.142899
1503530547261,0.20822144,-0.20422363,9.102432
1503530547271,0.19393921,-0.22564697,9.121475
1503530547281,0.1701355,-0.22088623,9.145279
1503530547291,0.14157104,-0.23278809,9.15242
1503530547301,0.22488403,-0.24468994,9.142899
1503530547310,0.13919067,-0.19708252,9.107193
1503530547320,0.18917847,-0.25183105,9.121475
1503530547330,0.16299438,-0.23516846,9.159561
1503530547339,0.17965698,-0.21612549,9.078629
1503530547350,0.15585327,-0.17565918,9.121475
1503530547359,0.14871216,-0.22564697,9.171463
1503530547369,0.17965698,-0.21136475,9.109573
1503530547379,0.15109253,-0.14471436,9.069107
1503530547389,0.13204956,-0.23040771,9.183365
1503530547398,0.18917847,-0.17327881,9.092911
1503530547409,0.20108032,-0.23278809,9.142899
1503530547419,0.19393921,-0.2637329,9.09053
1503530547429,0.1368103,-0.18518066,9.109573
1503530547438,0.19631958,-0.19232178,9.121475
1503530547448,0.16537476,-0.24230957,9.176224
1503530547458,0.16775513,-0.22802734,9.100052
1503530547468,0.17489624,-0.20422363,9.114334
1503530547477,0.15585327,-0.17803955,9.104813
1503530547487,0.18203735,-0.2637329,9.1548
1503530547497,0.17489624,-0.25183105,9.069107
1503530547507,0.20584106,-0.20422363,9.119095
1503530547517,0.16775513,-0.23278809,9.092911
1503530547527,0.17727661,-0.2232666,9.102432
1503530547537,0.1867981,-0.1899414,9.119095
1503530547546,0.16537476,-0.2637329,9.145279
1503530547556,0.17251587,-0.20422363,9.092911
1503530547566,0.14157104,-0.1899414,9.119095
1503530547576,0.22250366,-0.21850586,9.078629
1503530547586,0.18203735,-0.17565918,9.169083
1503530547596,0.18441772,-0.23516846,9.066727
1503530547606,0.16299438,-0.18756104,9.0976715
1503530547616,0.20108032,-0.20898438,9.1167145
1503530547625,0.19155884,-0.21850586,9.130997
1503530547635,0.1701355,-0.18041992,9.130997
1503530547645,0.14633179,-0.23040771,9.069107
1503530547655,0.19155884,-0.20422363,9.140518
1503530547665,0.18203735,-0.20422363,9.114334
1503530547675,0.1368103,-0.21374512,9.1548
1503530547685,0.13919067,-0.2232666,9.052444
1503530547694,0.19155884,-0.24230957,9.1167145
1503530547704,0.17489624,-0.23516846,9.057205
1503530547714,0.20108032,-0.20184326,9.095291
1503530547723,0.1867981,-0.20898438,9.0334015
1503530547733,0.15109253,-0.21374512,9.190506
1503530547744,0.22012329,-0.19470215,9.081009
1503530547754,0.19393921,-0.2399292,9.128616
1503530547764,0.20822144,-0.21136475,9.135757
1503530547773,0.17965698,-0.2399292,9.140518
1503530547783,0.20584106,-0.23278809,9.145279
1503530547793,0.19155884,-0.21374512,9.133377
1503530547802,0.17965698,-0.17565918,9.052444
1503530547813,0.16061401,-0.206604,9.0976715
1503530547822,0.1867981,-0.21374512,9.078629
1503530547832,0.23678589,-0.18756104,9.073868
1503530547842,0.19155884,-0.28753662,9.08577
1503530547852,0.17489624,-0.18041992,9.171463
1503530547862,0.14633179,-0.19708252,9.092911
1503530547872,0.18917847,-0.23516846,9.104813
1503530547882,0.18203735,-0.21374512,9.069107
1503530547891,0.16299438,-0.1828003,9.121475
1503530547901,0.13919067,-0.19232178,9.109573
1503530547911,0.22488403,-0.21136475,9.073868
1503530547921,0.16537476,-0.21136475,9.002457
1503530547930,0.16775513,-0.21374512,9.104813
1503530547940,0.14871216,-0.23040771,9.119095
1503530547950,0.18917847,-0.21612549,9.114334
1503530547960,0.17251587,-0.2732544,9.15242
1503530547970,0.19631958,-0.17327881,9.1809845
1503530547980,0.18203735,-0.21850586,9.104813
1503530547990,0.2272644,-0.17565918,9.157181
1503530548000,0.17965698,-0.206604,9.128616
1503530548009,0.12966919,-0.22088623,9.164322
1503530548019,0.17251587,-0.26849365,9.1167145
1503530548029,0.17727661,-0.18041992,9.104813
1503530548039,0.19155884,-0.25421143,9.104813
1503530548049,0.20822144,-0.21374512,9.133377
1503530548059,0.17251587,-0.21612549,9.140518
1503530548068,0.20108032,-0.22564697,9.128616
1503530548078,0.18441772,-0.21136475,9.140518
1503530548088,0.16537476,-0.15899658,9.09053
1503530548098,0.18917847,-0.206604,9.095291
1503530548108,0.17965698,-0.206604,9.071487
1503530548118,0.1701355,-0.19708252,9.133377
1503530548128,0.18203735,-0.2232666,9.059586
1503530548137,0.17727661,-0.1899414,9.123856
1503530548147,0.18917847,-0.20422363,9.147659
1503530548157,0.13442993,-0.23516846,9.142899
1503530548167,0.2106018,-0.18518066,9.066727
1503530548176,0.17489624,-0.21612549,9.040543
1503530548187,0.19631958,-0.22802734,9.119095
1503530548197,0.17251587,-0.23278809,9.083389
1503530548206,0.20108032,-0.21374512,9.0976715
1503530548216,0.14633179,-0.22088623,9.0334015
1503530548226,0.19631958,-0.22802734,9.08815
1503530548236,0.13919067,-0.25183105,9.159561
1503530548246,0.19155884,-0.23516846,9.159561
1503530548255,0.16775513,-0.19708252,9.038162
1503530548265,0.2034607,-0.21850586,9.185745
1503530548275,0.16775513,-0.20898438,9.140518
1503530548285,0.17251587,-0.2232666,9.111954
1503530548295,0.15823364,-0.19946289,9.081009
1503530548305,0.12728882,-0.22802734,9.114334
1503530548315,0.19631958,-0.21374512,9.1167145
1503530548325,0.15585327,-0.19232178,9.092911
1503530548334,0.15109253,-0.206604,9.176224
1503530548344,0.16061401,-0.25183105,9.123856
1503530548354,0.1867981,-0.19946289,9.142899
1503530548364,0.18203735,-0.26611328,9.133377
1503530548374,0.14157104,-0.19946289,8.990555
1503530548384,0.18441772,-0.19708252,9.071487
1503530548393,0.16537476,-0.26135254,9.15004
1503530548403,0.23440552,-0.21850586,9.159561
1503530548413,0.16537476,-0.20184326,9.121475
1503530548423,0.19155884,-0.22564697,9.176224
1503530548433,0.16299438,-0.24468994,9.126236
1503530548443,0.117767334,-0.27801514,9.102432
1503530548453,0.15109253,-0.20898438,9.0976715
1503530548462,0.1701355,-0.19232178,9.100052
1503530548472,0.19631958,-0.19232178,9.109573
1503530548482,0.1701355,-0.24230957,9.142899
1503530548492,0.18203735,-0.25183105,9.142899
1503530548502,0.21536255,-0.26611328,9.1167145
1503530548511,0.17489624,-0.19946289,9.100052
1503530548521,0.21298218,-0.22564697,9.159561
1503530548531,0.17251587,-0.21850586,9.1548
1503530548542,0.19393921,-0.20184326,9.111954
1503530548551,0.17965698,-0.25421143,9.121475
1503530548561,0.17489624,-0.24468994,9.145279
1503530548570,0.18917847,-0.21136475,9.157181
1503530548580,0.15109253,-0.24945068,9.130997
1503530548590,0.17489624,-0.20898438,9.159561
1503530548600,0.21298218,-0.18518066,9.09053
1503530548610,0.16299438,-0.19232178,9.130997
1503530548620,0.15823364,-0.21374512,9.095291
1503530548630,0.16061401,-0.19946289,9.083389
1503530548640,0.18203735,-0.1899414,9.071487
1503530548649,0.16775513,-0.19232178,9.0976715
1503530548659,0.17965698,-0.22088623,9.133377
1503530548669,0.17965698,-0.1899414,9.159561
1503530548679,0.1701355,-0.21850586,9.135757
1503530548689,0.14157104,-0.20422363,9.157181
1503530548698,0.17489624,-0.24945068,9.08815
1503530548708,0.13204956,-0.20422363,9.104813
1503530548718,0.1867981,-0.2232666,9.09053
1503530548729,0.19155884,-0.2565918,9.166702
1503530548738,0.19631958,-0.20898438,9.145279
1503530548748,0.21298218,-0.20898438,9.100052
1503530548758,0.19393921,-0.21850586,9.102432
1503530548768,0.17251587,-0.23040771,9.157181
1503530548778,0.23202515,-0.21136475,9.078629
1503530548787,0.17251587,-0.23516846,9.130997
1503530548798,0.17965698,-0.23516846,9.066727
1503530548807,0.16299438,-0.19232178,9.123856
1503530548817,0.15585327,-0.22802734,9.073868
1503530548826,0.1867981,-0.21612549,9.0976715
1503530548837,0.19155884,-0.21136475,9.09053
1503530548847,0.19393921,-0.22802734,9.059586
1503530548856,0.14395142,-0.20184326,9.171463
1503530548866,0.17251587,-0.21850586,9.159561
1503530548876,0.17489624,-0.21136475,9.1167145
1503530548886,0.17489624,-0.24945068,9.109573
1503530548896,0.2034607,-0.23278809,9.171463
1503530548905,0.17489624,-0.16851807,9.111954
1503530548916,0.17727661,-0.24945068,9.1167145
1503530548926,0.1701355,-0.21850586,9.121475
1503530548935,0.1701355,-0.23516846,9.102432
1503530548945,0.19393921,-0.23516846,9.078629
1503530548955,0.18917847,-0.21612549,9.176224
1503530548965,0.1534729,-0.20898438,9.173843
1503530548975,0.16775513,-0.22564697,9.147659
1503530548984,0.17489624,-0.19946289,9.1809845
1503530548994,0.1701355,-0.23516846,9.138138
1503530549004,0.14633179,-0.20184326,9.133377
1503530549014,0.15585327,-0.21850586,9.095291
1503530549024,0.17489624,-0.20898438,9.052444
1503530549033,0.17251587,-0.22564697,9.142899
1503530549043,0.18203735,-0.2399292,9.066727
1503530549053,0.14157104,-0.23516846,9.135757
1503530549063,0.14633179,-0.17803955,9.109573
1503530549073,0.18917847,-0.20898438,9.15004
1503530549083,0.16537476,-0.20184326,9.104813
1503530549092,0.21298218,-0.21850586,9.109573
1503530549102,0.14871216,-0.23040771,9.09053
1503530549112,0.1701355,-0.1899414,9.069107
1503530549122,0.15585327,-0.23754883,9.045303
1503530549132,0.21774292,-0.23040771,9.081009
1503530549142,0.11300659,-0.21136475,9.08577
1503530549152,0.18917847,-0.25897217,9.100052
1503530549162,0.17965698,-0.20422363,9.035782
1503530549171,0.18917847,-0.2399292,9.130997
1503530549181,0.18917847,-0.20184326,9.164322
1503530549191,0.19631958,-0.24707031,9.071487
1503530549201,0.14633179,-0.20898438,9.142899
1503530549211,0.17727661,-0.19470215,9.092911
1503530549221,0.19155884,-0.21136475,9.145279
1503530549230,0.14395142,-0.19232178,9.15004
1503530549240,0.20822144,-0.20184326,9.209549
1503530549250,0.18441772,-0.22802734,9.173843
1503530549260,0.15109253,-0.19946289,9.09053
1503530549270,0.19393921,-0.19708252,9.140518
1503530549280,0.15109253,-0.19946289,9.121475
1503530549289,0.19869995,-0.23516846,9.109573
1503530549299,0.2034607,-0.15423584,9.016739
1503530549309,0.1701355,-0.22802734,9.100052
1503530549319,0.19869995,-0.24707031,9.09053
1503530549329,0.16061401,-0.1828003,9.121475
1503530549339,0.17489624,-0.2232666,9.1167145
1503530549349,0.1701355,-0.21850586,9.081009
1503530549358,0.117767334,-0.22088623,9.145279
1503530549368,0.12728882,-0.22088623,9.109573
1503530549378,0.17251587,-0.22088623,9.130997
1503530549388,0.20108032,-0.16851807,9.126236
1503530549398,0.13442993,-0.22088623,9.066727
1503530549408,0.16537476,-0.2232666,9.1548
1503530549418,0.19155884,-0.21136475,9.104813
1503530549428,0.18917847,-0.2565918,9.111954
1503530549437,0.1701355,-0.20184326,9.121475
1503530549447,0.17251587,-0.21374512,9.104813
1503530549458,0.20822144,-0.19946289,9.002457
1503530549467,0.18441772,-0.18518066,9.104813
1503530549477,0.16537476,-0.21374512,9.121475
1503530549486,0.17727661,-0.23754883,9.135757
1503530549497,0.22250366,-0.20184326,9.08815
1503530549506,0.16775513,-0.21136475,9.071487
1503530549516,0.15585327,-0.2232666,9.135757
1503530549526,0.14871216,-0.21850586,9.107193
1503530549536,0.16537476,-0.23754883,9.073868
1503530549546,0.16537476,-0.22564697,9.092911
1503530549556,0.19155884,-0.16851807,9.140518
1503530549565,0.19155884,-0.19232178,9.119095
1503530549575,0.19155884,-0.2232666,9.1167145
1503530549585,0.15823364,-0.22088623,9.157181
1503530549595,0.18917847,-0.20184326,9.08815
1503530549605,0.20822144,-0.19708252,9.08577
1503530549615,0.14157104,-0.22088623,9.161942
1503530549625,0.18203735,-0.19470215,9.071487
1503530549635,0.15585327,-0.2399292,9.123856
1503530549644,0.2034607,-0.27087402,9.173843
1503530549654,0.22964478,-0.22088623,9.061966
1503530549664,0.1368103,-0.1899414,9.15242
1503530549674,0.20584106,-0.21850586,9.126236
1503530549683,0.16537476,-0.23754883,9.08815
1503530549693,0.16299438,-0.18518066,9.15004
1503530549704,0.22012329,-0.23040771,9.121475
1503530549713,0.14871216,-0.2565918,9.0976715
1503530549723,0.18441772,-0.206604,9.130997
1503530549733,0.20108032,-0.19232178,9.130997
1503530549743,0.15109253,-0.23516846,9.102432
1503530549753,0.16299438,-0.23040771,9.126236
1503530549763,0.18203735,-0.21612549,9.135757
1503530549772,0.1368103,-0.19470215,9.121475
1503530549782,0.16775513,-0.22088623,9.145279
1503530549792,0.16299438,-0.18756104,9.128616
1503530549802,0.1867981,-0.22564697,9.135757
1503530549812,0.20822144,-0.21850586,9.095291
1503530549821,0.17251587,-0.25421143,9.15242
1503530549831,0.15585327,-0.25897217,9.1548
1503530549841,0.14633179,-0.19946289,9.145279
1503530549851,0.16299438,-0.20898438,9.147659
1503530549861,0.17965698,-0.19232178,9.050064
1503530549871,0.1701355,-0.21374512,9.083389
1503530549881,0.1867981,-0.26135254,9.071487
1503530549890,0.17489624,-0.19232178,9.121475
1503530549901,0.17251587,-0.21850586,9.104813
1503530549910,0.16775513,-0.17565918,9.107193
1503530549920,0.13919067,-0.18041992,9.104813
1503530549930,0.17965698,-0.19232178,9.195267
1503530549940,0.18203735,-0.23754883,9.081009
1503530549949,0.14395142,-0.1899414,9.133377
1503530549960,0.19869995,-0.23516846,9.142899
1503530549969,0.19393921,-0.23040771,9.121475
1503530549979,0.1701355,-0.20898438,9.0215
1503530549989,0.16299438,-0.22088623,9.08815
1503530549999,0.1867981,-0.23040771,9.138138
1503530550008,0.17489624,-0.22802734,9.092911
1503530550018,0.18917847,-0.22088623,9.0976715
1503530550029,0.20108032,-0.20422363,9.130997
1503530550038,0.14395142,-0.21136475,9.142899
1503530550048,0.20584106,-0.21374512,9.09053
1503530550058,0.17251587,-0.20898438,9.08815
1503530550068,0.21298218,-0.22564697,9.147659
1503530550078,0.18917847,-0.23040771,9.100052
1503530550087,0.17965698,-0.24707031,9.076248
1503530550097,0.1701355,-0.23754883,9.069107
1503530550107,0.16061401,-0.19946289,9.109573
1503530550117,0.15585327,-0.2565918,9.128616
1503530550127,0.14633179,-0.21612549,9.133377
1503530550136,0.19869995,-0.206604,9.121475
1503530550147,0.18441772,-0.25183105,9.076248
1503530550156,0.12966919,-0.24230957,9.123856
1503530550166,0.22250366,-0.2399292,9.133377
1503530550176,0.19393921,-0.22564697,9.121475
1503530550186,0.20822144,-0.21136475,9.095291
1503530550196,0.17727661,-0.19946289,9.095291
1503530550206,0.17489624,-0.206604,9.121475
1503530550216,0.22488403,-0.1899414,9.1167145
1503530550225,0.1867981,-0.25183105,9.076248
1503530550235,0.1867981,-0.21374512,9.138138
1503530550245,0.2106018,-0.21136475,9.104813
1503530550255,0.18441772,-0.24707031,9.107193
1503530550265,0.20108032,-0.19708252,9.130997
1503530550275,0.20584106,-0.21612549,9.159561
1503530550284,0.17727661,-0.17565918,9.1548
1503530550294,0.2034607,-0.20184326,9.133377
1503530550304,0.1867981,-0.23278809,9.1167145
1503530550314,0.17727661,-0.206604,9.178604
1503530550324,0.18917847,-0.22564697,9.119095
1503530550334,0.17489624,-0.19708252,9.140518
1503530550344,0.1701355,-0.20184326,9.119095
1503530550353,0.19155884,-0.22564697,9.140518
1503530550364,0.17489624,-0.20898438,9.083389
1503530550373,0.18441772,-0.24945068,9.145279
1503530550383,0.17965698,-0.24945068,9.119095
1503530550393,0.1534729,-0.22564697,9.092911
1503530550403,0.16299438,-0.23278809,9.069107
1503530550413,0.17727661,-0.2232666,9.159561
1503530550423,0.16537476,-0.20422363,9.126236
1503530550432,0.1867981,-0.24468994,9.076248
1503530550442,0.16775513,-0.2399292,9.195267
1503530550452,0.19155884,-0.2565918,9.1548
1503530550462,0.15823364,-0.2565918,9.100052
1503530550471,0.19869995,-0.21374512,9.147659
1503530550481,0.17727661,-0.206604,9.100052
1503530550492,0.21774292,-0.23040771,9.078629
1503530550501,0.16299438,-0.20184326,9.0976715
1503530550511,0.13919067,-0.23516846,9.121475
1503530550521,0.17251587,-0.20898438,9.126236
1503530550531,0.12490845,-0.1899414,9.102432
1503530550541,0.17251587,-0.24230957,9.042923
1503530550550,0.16775513,-0.23278809,9.109573
1503530550560,0.18917847,-0.20422363,9.078629
1503530550570,0.15109253,-0.25183105,9.066727
1503530550580,0.17727661,-0.26611328,9.126236
1503530550590,0.14395142,-0.21612549,9.123856
1503530550600,0.1867981,-0.16851807,9.15004
1503530550610,0.15585327,-0.19232178,9.130997
1503530550619,0.15585327,-0.2399292,9.119095
1503530550629,0.16061401,-0.24468994,9.102432
1503530550639,0.17727661,-0.21612549,9.15004
1503530550649,0.17727661,-0.17803955,9.071487
1503530550659,0.17727661,-0.2232666,9.128616
1503530550669,0.16775513,-0.24707031,9.119095
1503530550678,0.20822144,-0.25897217,9.064346
1503530550688,0.13442993,-0.22802734,9.057205
1503530550698,0.17251587,-0.1899414,9.054825
1503530550708,0.16775513,-0.19946289,9.107193
1503530550718,0.16537476,-0.22802734,9.1167145
1503530550728,0.25106812,-0.23040771,9.107193
1503530550737,0.117767334,-0.19946289,9.069107
1503530550747,0.17251587,-0.25183105,9.08577
1503530550757,0.096343994,-0.21612549,9.1167145
1503530550767,0.18203735,-0.2803955,9.111954
1503530550777,0.18917847,-0.23278809,9.0334015
1503530550787,0.18203735,-0.24945068,9.073868
1503530550797,0.19631958,-0.22088623,9.104813
1503530550806,0.19393921,-0.19708252,9.123856
1503530550816,0.16537476,-0.21374512,9.138138
1503530550826,0.18203735,-0.19708252,9.126236
1503530550836,0.21774292,-0.2399292,9.147659
1503530550846,0.15585327,-0.23516846,9.169083
1503530550856,0.1867981,-0.18518066,9.123856
1503530550865,0.20822144,-0.21612549,9.042923
1503530550875,0.14871216,-0.24468994,9.197647
1503530550885,0.17727661,-0.26135254,9.121475
1503530550895,0.17727661,-0.21612549,9.031021
1503530550905,0.16299438,-0.21136475,9.066727
1503530550915,0.19869995,-0.16851807,9.071487
1503530550924,0.1534729,-0.22564697,9.073868
1503530550935,0.1867981,-0.23278809,9.147659
1503530550944,0.1701355,-0.19232178,9.054825
1503530550954,0.17489624,-0.25421143,9.138138
1503530550964,0.19393921,-0.22802734,9.083389
1503530550974,0.16061401,-0.25183105,9.092911
1503530550984,0.13204956,-0.22564697,9.066727
1503530550993,0.18917847,-0.19946289,9.190506
1503530551003,0.17965698,-0.24230957,9.083389
1503530551013,0.15585327,-0.2232666,9.0976715
1503530551023,0.18203735,-0.24230957,9.1167145
1503530551033,0.2034607,-0.23516846,9.128616
1503530551043,0.18917847,-0.24230957,9.133377
1503530551052,0.1867981,-0.20184326,9.1167145
1503530551062,0.19869995,-0.20422363,9.100052
1503530551072,0.16775513,-0.24468994,9.071487
1503530551082,0.16537476,-0.2565918,9.107193
1503530551092,0.17489624,-0.206604,9.081009
1503530551102,0.19393921,-0.23278809,9.059586
1503530551112,0.20108032,-0.19708252,9.0976715
1503530551122,0.15823364,-0.20898438,9.092911
1503530551132,0.17727661,-0.22088623,9.142899
1503530551141,0.13204956,-0.25897217,9.109573
1503530551151,0.2106018,-0.22802734,9.211929
1503530551161,0.14633179,-0.23040771,9.092911
1503530551171,0.1867981,-0.21374512,9.133377
1503530551180,0.17251587,-0.22088623,9.1167145
1503530551191,0.15109253,-0.23278809,9.123856
1503530551201,0.1701355,-0.21374512,9.102432
1503530551210,0.1368103,-0.2565918,9.081009
1503530551220,0.14157104,-0.22088623,9.102432
1503530551230,0.14871216,-0.2232666,9.145279
1503530551240,0.15823364,-0.23040771,9.092911
1503530551250,0.19869995,-0.23278809,9.066727
1503530551259,0.16061401,-0.28277588,9.133377
1503530551270,0.19393921,-0.26135254,9.08577
1503530551280,0.15109253,-0.24230957,9.140518
1503530551289,0.19393921,-0.23040771,9.135757
1503530551299,0.14633179,-0.2565918,9.111954
1503530551309,0.16061401,-0.2399292,9.081009
1503530551318,0.17727661,-0.21850586,9.0976715
1503530551328,0.19155884,-0.2232666,9.183365
1503530551338,0.20584106,-0.20898438,9.078629
1503530551348,0.18203735,-0.20898438,9.140518
1503530551358,0.21536255,-0.2232666,9.083389
1503530551368,0.19393921,-0.23754883,9.138138
1503530551378,0.15585327,-0.25897217,9.114334
1503530551388,0.19631958,-0.21136475,9.069107
1503530551397,0.18203735,-0.19232178,9.142899
1503530551407,0.16775513,-0.21850586,9.142899
1503530551417,0.16061401,-0.22564697,9.057205
1503530551427,0.18203735,-0.20422363,9.190506
1503530551437,0.17489624,-0.21136475,9.109573
1503530551447,0.18917847,-0.20184326,9.135757
1503530551457,0.19631958,-0.206604,9.128616
1503530551467,0.15109253,-0.19470215,9.09053
1503530551476,0.19631958,-0.23516846,9.159561
1503530551486,0.16775513,-0.19708252,9.111954
1503530551495,0.19631958,-0.22802734,9.145279
1503530551505,0.16537476,-0.22564697,9.109573
1503530551516,0.1867981,-0.18518066,9.140518
1503530551526,0.19869995,-0.2232666,9.061966
1503530551535,0.1368103,-0.21850586,9.130997
1503530551545,0.20584106,-0.21850586,9.114334
1503530551555,0.18203735,-0.20898438,9.073868
1503530551565,0.17965698,-0.21612549,9.059586
1503530551574,0.18441772,-0.22802734,9.09053
1503530551584,0.16299438,-0.21136475,9.145279
1503530551594,0.14157104,-0.23040771,9.102432
1503530551604,0.19869995,-0.21136475,9.076248
1503530551614,0.15109253,-0.2637329,9.09053
1503530551624,0.19393921,-0.17803955,9.121475
1503530551633,0.18441772,-0.21136475,9.178604
1503530551643,0.17965698,-0.23040771,9.164322
1503530551653,0.19393921,-0.2399292,9.100052
1503530551663,0.18441772,-0.23516846,9.104813
1503530551673,0.1867981,-0.2565918,9.102432
1503530551683,0.17489624,-0.19232178,9.157181
1503530551693,0.1867981,-0.20184326,9.147659
1503530551702,0.15823364,-0.22564697,9.104813
1503530551713,0.17727661,-0.22088623,9.104813
1503530551722,0.15585327,-0.24707031,9.176224
1503530551732,0.20584106,-0.20898438,9.09053
1503530551742,0.2034607,-0.2399292,9.102432
1503530551752,0.15823364,-0.24707031,9.114334
1503530551761,0.14633179,-0.14709473,9.133377
1503530551772,0.19155884,-0.21374512,9.111954
1503530551781,0.15585327,-0.18518066,9.08577
1503530551791,0.11538696,-0.21612549,9.190506
1503530551801,0.17965698,-0.22564697,9.109573
1503530551811,0.17727661,-0.19946289,9.183365
1503530551821,0.19393921,-0.22802734,9.0976715
1503530551830,0.22488403,-0.22802734,9.09053
1503530551841,0.17965698,-0.18756104,9.054825
1503530551850,0.18441772,-0.23040771,9.166702
1503530551861,0.16775513,-0.22802734,9.145279
1503530551870,0.20822144,-0.21850586,9.142899
1503530551880,0.20822144,-0.23040771,9.073868
1503530551890,0.16299438,-0.21374512,9.092911
1503530551900,0.21774292,-0.206604,9.126236
1503530551909,0.12490845,-0.18041992,9.1809845
1503530551919,0.22964478,-0.24707031,9.100052
1503530551929,0.1867981,-0.28753662,9.128616
1503530551939,0.17251587,-0.23040771,9.111954
1503530551949,0.19393921,-0.19946289,9.192886
1503530551959,0.1867981,-0.21612549,9.15004
1503530551969,0.16537476,-0.27563477,9.121475
1503530551978,0.22012329,-0.19708252,9.185745
1503530551988,0.17727661,-0.24707031,9.183365
1503530551998,0.2034607,-0.2232666,9.054825
1503530552008,0.17965698,-0.23754883,9.15004
1503530552018,0.17727661,-0.24230957,9.164322
1503530552027,0.11062622,-0.2399292,9.121475
1503530552037,0.14633179,-0.19708252,9.078629
1503530552047,0.18203735,-0.22564697,9.121475
1503530552057,0.14157104,-0.23278809,9.102432
1503530552067,0.21536255,-0.20898438,9.128616
1503530552077,0.17965698,-0.23278809,9.140518
1503530552086,0.1701355,-0.25897217,9.095291
1503530552097,0.14395142,-0.18518066,9.114334
1503530552106,0.16537476,-0.21612549,9.104813
1503530552117,0.18917847,-0.21136475,9.126236
1503530552127,0.13919067,-0.2232666,9.1548
1503530552136,0.14633179,-0.21136475,9.09053
1503530552146,0.16299438,-0.21136475,9.123856
1503530552156,0.1867981,-0.23278809,9.130997
1503530552166,0.17489624,-0.22564697,9.08815
1503530552175,0.15823364,-0.2232666,9.204788
1503530552185,0.1368103,-0.21850586,9.173843
1503530552195,0.14871216,-0.2232666,9.054825
1503530552205,0.19393921,-0.23754883,9.1167145
1503530552215,0.14871216,-0.19232178,9.102432
1503530552225,0.17965698,-0.22564697,9.159561
1503530552235,0.14395142,-0.2232666,9.145279
1503530552244,0.17489624,-0.21136475,9.1548
1503530552254,0.18203735,-0.20898438,9.09053
1503530552264,0.1701355,-0.19708252,9.042923
1503530552274,0.18917847,-0.22564697,9.128616
1503530552284,0.1701355,-0.23754883,9.169083
1503530552294,0.22250366,-0.21612549,9.09053
1503530552303,0.14157104,-0.26611328,9.107193
1503530552314,0.17965698,-0.21850586,9.08815
1503530552323,0.14871216,-0.19708252,9.092911
1503530552333,0.21298218,-0.20184326,9.107193
1503530552343,0.21536255,-0.2399292,9.069107
1503530552353,0.16775513,-0.17327881,9.045303
1503530552363,0.14395142,-0.20184326,9.100052
1503530552372,0.16775513,-0.18756104,9.128616
1503530552382,0.1701355,-0.23516846,9.031021
1503530552392,0.15823364,-0.21612549,9.069107
1503530552402,0.20108032,-0.21612549,9.119095
1503530552412,0.17251587,-0.20898438,9.140518
1503530552422,0.20822144,-0.19708252,9.1167145
1503530552432,0.15823364,-0.21612549,9.071487
1503530552441,0.17489624,-0.20184326,9.0976715
1503530552451,0.15109253,-0.21612549,9.1548
1503530552461,0.18441772,-0.21136475,9.064346
1503530552471,0.21774292,-0.24707031,9.1548
1503530552480,0.2034607,-0.25183105,9.130997
1503530552491,0.20108032,-0.19232178,9.078629
1503530552500,0.17965698,-0.21850586,9.064346
1503530552510,0.15823364,-0.21374512,9.073868
1503530552520,0.1867981,-0.24707031,9.15004
1503530552530,0.16775513,-0.23040771,9.0976715
1503530552540,0.18441772,-0.20184326,9.142899
1503530552550,0.12966919,-0.23040771,9.169083
1503530552560,0.19631958,-0.22564697,9.081009
1503530552569,0.21298218,-0.21850586,9.100052
1503530552579,0.16775513,-0.22564697,9.119095
1503530552589,0.13919067,-0.20422363,9.08577
1503530552599,0.16775513,-0.14471436,9.209549
1503530552609,0.1368103,-0.17803955,9.138138
1503530552619,0.16299438,-0.17803955,9.209549
1503530552628,0.18441772,-0.19470215,9.104813
1503530552638,0.21774292,-0.20898438,9.15242
1503530552648,0.16537476,-0.21374512,9.130997
1503530552658,0.17489624,-0.206604,9.138138
1503530552668,0.1534729,-0.2232666,9.128616
1503530552678,0.20108032,-0.25421143,9.133377
1503530552688,0.14871216,-0.24707031,9.173843
1503530552697,0.15585327,-0.21374512,9.121475
1503530552708,0.12966919,-0.2232666,9.21907
1503530552717,0.17251587,-0.22802734,9.114334
1503530552727,0.16775513,-0.19470215,9.073868
1503530552736,0.16061401,-0.23278809,9.121475
1503530552747,0.19869995,-0.22088623,9.104813
1503530552757,0.19393921,-0.19470215,9.123856
1503530552767,0.15823364,-0.21136475,9.095291
1503530552776,0.19631958,-0.20898438,9.135757
1503530552786,0.15585327,-0.17327881,9.188126
1503530552796,0.14871216,-0.26135254,9.183365
1503530552806,0.19393921,-0.25897217,9.119095
1503530552816,0.2034607,-0.14233398,9.126236
1503530552826,0.1534729,-0.23040771,9.138138
1503530552835,0.16537476,-0.21374512,9.083389
1503530552845,0.1701355,-0.2565918,9.202408
1503530552855,0.13919067,-0.24707031,9.066727
1503530552865,0.18203735,-0.19708252,9.069107
1503530552875,0.20108032,-0.19232178,9.045303
1503530552885,0.17965698,-0.24468994,9.123856
1503530552895,0.17727661,-0.25897217,9.100052
1503530552904,0.12490845,-0.206604,9.114334
1503530552914,0.2034607,-0.20898438,9.109573
1503530552924,0.1534729,-0.23516846,9.142899
1503530552934,0.21298218,-0.24945068,9.119095
1503530552943,0.1534729,-0.20898438,9.1548
1503530552954,0.1701355,-0.19232178,9.126236
1503530552963,0.17251587,-0.2232666,9.08577
1503530552973,0.16061401,-0.22802734,9.100052
1503530552983,0.20584106,-0.1828003,9.064346
1503530552993,0.15823364,-0.19232178,9.157181
1503530553003,0.16061401,-0.2232666,9.130997
1503530553012,0.17489624,-0.1899414,9.111954
1503530553022,0.1867981,-0.206604,9.040543
1503530553032,0.1701355,-0.22802734,9.126236
1503530553042,0.16061401,-0.2232666,9.078629
1503530553052,0.16299438,-0.1899414,9.1548
1503530553062,0.1867981,-0.19708252,9.169083
1503530553071,0.2106018,-0.23040771,9.166702
1503530553082,0.15823364,-0.23516846,9.114334
1503530553091,0.16775513,-0.21850586,9.081009
1503530553102,0.14157104,-0.24945068,9.169083
1503530553111,0.16061401,-0.23754883,9.176224
1503530553121,0.18917847,-0.23040771,9.130997
1503530553131,0.21774292,-0.18518066,9.078629
1503530553141,0.17727661,-0.2399292,9.171463
1503530553151,0.18917847,-0.21136475,9.130997
1503530553160,0.16537476,-0.21136475,9.178604
1503530553170,0.20822144,-0.22802734,9.119095
1503530553180,0.17489624,-0.20422363,9.100052
1503530553190,0.16537476,-0.2399292,9.130997
1503530553200,0.16537476,-0.23516846,9.128616
1503530553209,0.1867981,-0.24707031,9.147659
1503530553219,0.20108032,-0.22802734,9.09053
1503530553229,0.15109253,-0.23040771,9.192886
1503530553239,0.15823364,-0.21850586,9.123856
1503530553249,0.2034607,-0.23278809,9.057205
1503530553259,0.14395142,-0.19232178,9.130997
1503530553268,0.21774292,-0.20898438,9.0976715
1503530553278,0.15109253,-0.26611328,9.130997
1503530553288,0.19393921,-0.20898438,9.09053
1503530553299,0.15109253,-0.21136475,9.138138
1503530553308,0.17251587,-0.18041992,9.171463
1503530553318,0.16537476,-0.23278809,9.140518
1503530553328,0.2034607,-0.22564697,9.140518
1503530553337,0.15823364,-0.21612549,9.130997
1503530553348,0.18917847,-0.22088623,9.104813
1503530553357,0.1867981,-0.21374512,9.147659
1503530553367,0.16775513,-0.2232666,9.133377
1503530553377,0.1701355,-0.18756104,9.185745
1503530553387,0.19869995,-0.23040771,9.095291
1503530553397,0.1867981,-0.21850586,9.109573
1503530553406,0.14395142,-0.23516846,9.109573
1503530553416,0.16299438,-0.21374512,9.102432
1503530553426,0.15823364,-0.21850586,9.081009
1503530553436,0.17489624,-0.22088623,9.095291
1503530553446,0.15585327,-0.1899414,9.1167145
1503530553456,0.14871216,-0.21612549,9.102432
1503530553466,0.17727661,-0.21374512,9.176224
1503530553475,0.21298218,-0.206604,9.109573
1503530553486,0.15585327,-0.21612549,9.138138
1503530553495,0.1368103,-0.22802734,9.1548
1503530553505,0.1701355,-0.20898438,9.050064
1503530553515,0.1867981,-0.21374512,9.15004
1503530553525,0.1867981,-0.21374512,9.195267
1503530553534,0.1534729,-0.20898438,9.107193
1503530553544,0.22012329,-0.21850586,9.104813
1503530553554,0.14633179,-0.21374512,9.08815
1503530553564,0.22012329,-0.2399292,9.109573
1503530553574,0.16775513,-0.25183105,9.076248
1503530553584,0.16775513,-0.25421143,9.0976715
1503530553594,0.21298218,-0.20422363,9.1809845
1503530553604,0.16299438,-0.24230957,9.145279
1503530553613,0.19155884,-0.21612549,9.08577
1503530553623,0.18203735,-0.1828003,9.111954
1503530553633,0.19869995,-0.21850586,9.121475
1503530553643,0.16537476,-0.20422363,9.08815
1503530553653,0.20108032,-0.24707031,9.095291
1503530553663,0.17965698,-0.23516846,9.209549
1503530553672,0.22488403,-0.24230957,9.104813
1503530553682,0.12728882,-0.16137695,9.142899
1503530553692,0.16537476,-0.19946289,9.135757
1503530553702,0.17251587,-0.18756104,9.188126
1503530553712,0.19393921,-0.25897217,9.08577
1503530553722,0.16061401,-0.25421143,9.1809845
1503530553732,0.16775513,-0.21850586,9.092911
1503530553742,0.19155884,-0.1899414,9.166702
1503530553751,0.17251587,-0.22088623,9.1167145
1503530553761,0.19631958,-0.28277588,9.08815
1503530553771,0.1867981,-0.24468994,9.145279
1503530553781,0.16537476,-0.21374512,9.142899
1503530553791,0.12966919,-0.25421143,9.095291
1503530553801,0.14633179,-0.24945068,9.157181
1503530553811,0.21536255,-0.25183105,9.078629
1503530553820,0.1867981,-0.2399292,9.107193
1503530553830,0.1867981,-0.26135254,9.138138
1503530553840,0.17727661,-0.17327881,9.166702
1503530553850,0.19155884,-0.23040771,9.111954
1503530553860,0.18203735,-0.21136475,9.047684
1503530553870,0.10824585,-0.21136475,9.133377
1503530553879,0.17965698,-0.19708252,9.073868
1503530553889,0.1368103,-0.24945068,9.15242
1503530553899,0.17251587,-0.22802734,9.109573
1503530553909,0.17251587,-0.20422363,9.083389
1503530553919,0.1534729,-0.20898438,9.069107
1503530553929,0.17727661,-0.24230957,9.126236
1503530553939,0.16537476,-0.206604,9.1167145
1503530553948,0.17727661,-0.19708252,8.990555
1503530553958,0.2034607,-0.1828003,9.100052
1503530553968,0.1701355,-0.20184326,9.057205
1503530553978,0.18441772,-0.23278809,9.119095
1503530553988,0.1701355,-0.26135254,9.009598
1503530553998,0.17251587,-0.23754883,9.092911
1503530554007,0.17489624,-0.2232666,9.147659
1503530554017,0.15585327,-0.20184326,9.052444
1503530554027,0.2272644,-0.26135254,9.1548
1503530554037,0.16775513,-0.2399292,9.08577
1503530554047,0.16775513,-0.21374512,9.08577
1503530554057,0.16775513,-0.20898438,9.064346
1503530554067,0.15823364,-0.21136475,9.157181
1503530554077,0.1368103,-0.21374512,9.111954
1503530554086,0.17251587,-0.22088623,9.08815
1503530554097,0.16299438,-0.21374512,9.126236
1503530554106,0.22964478,-0.25183105,9.073868
1503530554116,0.22250366,-0.19708252,9.050064
1503530554126,0.19393921,-0.2399292,9.138138
1503530554136,0.18441772,-0.21850586,9.169083
1503530554145,0.19869995,-0.23516846,9.126236
1503530554155,0.1701355,-0.2232666,9.08577
1503530554165,0.18441772,-0.22564697,9.161942
1503530554175,0.16061401,-0.23278809,9.145279
1503530554185,0.2605896,-0.17327881,9.042923
1503530554194,0.1867981,-0.21612549,9.069107
1503530554204,0.1534729,-0.22564697,9.123856
1503530554214,0.1701355,-0.22802734,9.195267
1503530554224,0.15823364,-0.20184326,9.133377
1503530554234,0.19155884,-0.24230957,9.109573
1503530554244,0.1701355,-0.23278809,9.169083
1503530554254,0.16775513,-0.25421143,9.178604
1503530554264,0.15109253,-0.19708252,9.188126
1503530554273,0.14633179,-0.19470215,9.133377
1503530554284,0.19869995,-0.20422363,9.114334
1503530554293,0.16537476,-0.21850586,9.188126
1503530554303,0.17965698,-0.23754883,9.107193
1503530554313,0.16061401,-0.22564697,9.064346
1503530554323,0.14871216,-0.21612549,9.109573
1503530554333,0.15109253,-0.21850586,9.135757
1503530554342,0.13919067,-0.19470215,9.133377
1503530554352,0.17489624,-0.20898438,9.197647
1503530554362,0.1534729,-0.24230957,9.1167145
1503530554372,0.15823364,-0.206604,9.073868
1503530554381,0.16299438,-0.22564697,9.138138
1503530554392,0.17489624,-0.24230957,9.081009
1503530554401,0.16775513,-0.22802734,9.133377
1503530554411,0.19869995,-0.206604,9.147659
1503530554421,0.19155884,-0.18041992,9.057205
1503530554431,0.15585327,-0.22802734,9.0976715
1503530554440,0.19631958,-0.23516846,9.192886
1503530554450,0.19631958,-0.22088623,9.078629
1503530554461,0.16537476,-0.21136475,9.140518
1503530554471,0.1534729,-0.21612549,9.078629
1503530554480,0.16061401,-0.25897217,9.078629
1503530554491,0.2106018,-0.21374512,9.0976715
1503530554500,0.15109253,-0.1899414,9.171463
1503530554510,0.2106018,-0.20184326,9.107193
1503530554520,0.16061401,-0.2399292,9.100052
1503530554530,0.16299438,-0.22564697,9.111954
1503530554539,0.17965698,-0.2232666,9.1548
1503530554549,0.16061401,-0.23278809,9.054825
1503530554559,0.20108032,-0.19232178,9.145279
1503530554569,0.18917847,-0.21136475,9.123856
1503530554578,0.15585327,-0.23754883,9.161942
1503530554588,0.14871216,-0.20422363,9.052444
1503530554599,0.19869995,-0.2232666,9.092911
1503530554608,0.20108032,-0.1899414,9.192886
1503530554619,0.18917847,-0.21374512,9.178604
1503530554628,0.16537476,-0.21374512,9.166702
1503530554638,0.16775513,-0.24707031,9.104813
1503530554647,0.2034607,-0.20184326,9.1809845
1503530554658,0.17965698,-0.22088623,9.142899
1503530554668,0.17965698,-0.23754883,9.15242
1503530554678,0.21774292,-0.19232178,9.107193
1503530554687,0.13919067,-0.22088623,9.064346
1503530554697,0.2106018,-0.24707031,9.071487
1503530554707,0.18917847,-0.20422363,9.08577
1503530554717,0.17251587,-0.20184326,9.123856
1503530554727,0.18917847,-0.21612549,9.119095
1503530554736,0.12966919,-0.21136475,9.128616
1503530554746,0.17727661,-0.2399292,9.138138
1503530554756,0.17489624,-0.23278809,9.08577
1503530554766,0.19869995,-0.206604,9.121475
1503530554776,0.21536255,-0.206604,9.128616
1503530554785,0.16299438,-0.2637329,9.104813
1503530554796,0.1701355,-0.23516846,9.123856
1503530554806,0.17489624,-0.22802734,9.1167145
1503530554815,0.19631958,-0.19232178,9.104813
1503530554825,0.1867981,-0.22088623,9.135757
1503530554835,0.20584106,-0.24230957,9.140518
1503530554845,0.2034607,-0.21612549,9.142899
1503530554855,0.1867981,-0.21136475,9.171463
1503530554864,0.19869995,-0.21136475,9.107193
1503530554874,0.1701355,-0.21136475,9.095291
1503530554884,0.1867981,-0.21612549,9.164322
1503530554894,0.13204956,-0.2232666,9.100052
1503530554904,0.16061401,-0.24945068,9.0976715
1503530554914,0.18441772,-0.25421143,9.161942
1503530554924,0.18441772,-0.23040771,9.083389
1503530554933,0.20108032,-0.22088623,9.1548
1503530554943,0.16775513,-0.18518066,9.114334
1503530554953,0.17489624,-0.23754883,9.107193
1503530554963,0.2106018,-0.19232178,9.107193
1503530554973,0.1534729,-0.20184326,9.08815
1503530554983,0.19631958,-0.20184326,9.123856
1503530554992,0.17489624,-0.24230957,9.09053
1503530555002,0.22012329,-0.25897217,9.15242
1503530555012,0.16537476,-0.22088623,9.08815
1503530555022,0.17489624,-0.22802734,9.035782
1503530555032,0.20108032,-0.19946289,9.052444
1503530555042,0.1534729,-0.22564697,9.102432
1503530555052,0.16775513,-0.25183105,9.164322
1503530555062,0.18917847,-0.19470215,9.15004
1503530555072,0.15585327,-0.22802734,9.073868
1503530555081,0.17251587,-0.22088623,9.0976715
1503530555091,0.15823364,-0.22564697,9.135757
1503530555101,0.16537476,-0.23040771,9.145279
1503530555111,0.14871216,-0.1494751,9.140518
1503530555121,0.17727661,-0.23040771,9.111954
1503530555130,0.17727661,-0.19470215,9.142899
1503530555140,0.18441772,-0.24945068,9.054825
1503530555150,0.18441772,-0.20898438,9.035782
1503530555160,0.19869995,-0.206604,9.176224
1503530555170,0.17727661,-0.23754883,9.15242
1503530555179,0.16537476,-0.23278809,9.138138
1503530555189,0.20584106,-0.20898438,9.08815
1503530555199,0.17965698,-0.17803955,9.100052
1503530555209,0.1534729,-0.21850586,9.133377
1503530555219,0.1867981,-0.24707031,9.171463
1503530555229,0.18917847,-0.2637329,9.052444
1503530555239,0.17727661,-0.20184326,9.078629
1503530555249,0.14157104,-0.19470215,9.1548
1503530555258,0.15109253,-0.18041992,9.138138
1503530555268,0.19155884,-0.19708252,9.08577
1503530555278,0.19155884,-0.23754883,9.130997
1503530555288,0.17251587,-0.1828003,9.104813
1503530555298,0.19393921,-0.19946289,9.159561
1503530555308,0.16299438,-0.23754883,9.140518
1503530555318,0.18917847,-0.18756104,9.176224
1503530555327,0.16775513,-0.2637329,9.121475
1503530555337,0.18441772,-0.20422363,9.114334
1503530555347,0.16537476,-0.21850586,9.157181
1503530555357,0.19869995,-0.17803955,9.08577
1503530555367,0.16775513,-0.23516846,9.138138
1503530555377,0.16537476,-0.22564697,9.109573
1503530555386,0.17489624,-0.1899414,9.076248
1503530555397,0.16537476,-0.23278809,9.133377
1503530555406,0.18441772,-0.2232666,9.121475
1503530555416,0.13919067,-0.21374512,9.095291
1503530555426,0.1867981,-0.23278809,9.126236
1503530555436,0.20584106,-0.23754883,9.15242
1503530555446,0.17727661,-0.20422363,9.128616
1503530555455,0.17489624,-0.21374512,9.045303
1503530555465,0.16061401,-0.17565918,9.0976715
1503530555475,0.20584106,-0.20184326,9.123856
1503530555485,0.16061401,-0.20184326,9.123856
1503530555495,0.19393921,-0.21612549,9.064346
1503530555505,0.15823364,-0.24707031,9.123856
1503530555515,0.1534729,-0.2232666,9.078629
1503530555524,0.20108032,-0.20422363,9.059586
1503530555534,0.17489624,-0.25897217,9.102432
1503530555544,0.19393921,-0.1661377,9.1548
1503530555554,0.16775513,-0.21374512,9.08815
1503530555564,0.20584106,-0.22088623,9.133377
1503530555574,0.18441772,-0.1899414,9.081009
1503530555583,0.1701355,-0.22802734,9.140518
1503530555593,0.16537476,-0.20422363,9.081009
1503530555603,0.15585327,-0.22802734,9.147659
1503530555613,0.1867981,-0.19232178,9.121475
1503530555623,0.1867981,-0.1828003,9.123856
1503530555633,0.1368103,-0.20184326,9.126236
1503530555643,0.21298218,-0.20184326,9.109573
1503530555652,0.16299438,-0.22088623,9.15004
1503530555662,0.16537476,-0.22088623,9.142899
1503530555672,0.15823364,-0.23040771,9.095291
1503530555682,0.19631958,-0.22088623,9.064346
1503530555692,0.13204956,-0.2232666,9.1809845
1503530555702,0.16061401,-0.22564697,9.100052
1503530555712,0.16775513,-0.24707031,9.157181
1503530555721,0.1534729,-0.23754883,9.197647
1503530555731,0.19155884,-0.23278809,9.035782
1503530555741,0.18917847,-0.22802734,9.095291
1503530555751,0.18917847,-0.25183105,9.128616
1503530555761,0.22488403,-0.21612549,9.161942
1503530555771,0.22964478,-0.19708252,9.107193
1503530555780,0.21774292,-0.23516846,9.061966
1503530555790,0.17965698,-0.20184326,9.109573
1503530555800,0.17489624,-0.23278809,9.114334
1503530555810,0.17489624,-0.23040771,9.183365
1503530555820,0.18203735,-0.2399292,9.147659
1503530555830,0.17251587,-0.2232666,9.08815
1503530555839,0.1701355,-0.1899414,9.157181
1503530555850,0.16775513,-0.18518066,9.078629
1503530555859,0.13204956,-0.2232666,9.204788
1503530555869,0.20584106,-0.2399292,9.15242
1503530555879,0.17727661,-0.20184326,9.100052
1503530555889,0.14157104,-0.23516846,9.123856
1503530555899,0.20584106,-0.23278809,9.102432
1503530555909,0.1701355,-0.23516846,9.064346
1503530555919,0.19869995,-0.26849365,9.126236
1503530555929,0.19155884,-0.24230957,9.171463
1503530555938,0.18441772,-0.24945068,9.0976715
1503530555948,0.13919067,-0.25183105,9.111954
1503530555958,0.17727661,-0.22564697,9.102432
1503530555968,0.17251587,-0.21374512,9.176224
1503530555978,0.17727661,-0.1899414,9.078629
1503530555988,0.20108032,-0.22564697,9.121475
1503530555998,0.15585327,-0.19946289,9.064346
1503530556007,0.1534729,-0.2232666,9.142899
1503530556017,0.18441772,-0.17565918,9.135757
1503530556027,0.15823364,-0.24945068,9.104813
1503530556036,0.22964478,-0.22802734,9.109573
1503530556047,0.19155884,-0.2399292,9.0976715
1503530556056,0.19155884,-0.21612549,9.109573
1503530556066,0.14871216,-0.23754883,9.111954
1503530556076,0.16061401,-0.2399292,9.147659
1503530556086,0.1534729,-0.21850586,9.104813
