Time,accX,accY,accZ
1503530526602,0.17108154,-0.21231079,9.13385
1503530526652,0.15803682804107666,-0.23608851432800293,9.13281823694706
1503530526702,0.17193889617919922,-0.21119284629821777,9.128606347367167
1503530526752,0.1891077756881714,-0.22572482377290726,9.127695858478546
1503530526802,0.17572999000549316,-0.22681182622909546,9.11707304418087
1503530526852,0.16667112708091736,-0.2139836549758911,9.116767287254333
1503530526902,0.17157575488090515,-0.1972426176071167,9.137861847877502
1503530526952,0.16860496997833252,-0.21760845184326172,9.11803811788559
1503530527002,0.18316292762756348,-0.2358410358428955,9.114386796951294
1503530527052,0.14531683921813965,-0.21468323469161987,9.12340396642685
1503530527102,0.16759657859802246,-0.22931689023971558,9.111088335514069
1503530527152,0.17686688899993896,-0.2334006428718567,9.120180130004883
1503530527202,0.15961939096450806,-0.22318221628665924,9.11252760887146
1503530527252,0.1728552281856537,-0.22697293758392334,9.121070146560669
1503530527302,0.17710304260253906,-0.2358837127685547,9.095288872718811
1503530527352,0.17227298021316528,-0.23459851741790771,9.118776321411133
1503530527402,0.1756579875946045,-0.22139647603034973,9.130959630012512
1503530527452,0.16416028141975403,-0.22592130303382874,9.116814449429512
1503530527502,0.16080832481384277,-0.2240438461303711,9.117389261722565
1503530527552,0.1517012119293213,-0.23318970203399658,9.108046531677246
1503530527602,0.1782945841550827,-0.2308219075202942,9.106850564479828
1503530527652,0.1830856204032898,-0.22246246598660946,9.121141135692596
1503530527702,0.18662261962890625,-0.21967029571533203,9.133553743362427
1503530527752,0.1769677009433508,-0.214281365275383,9.131531357765198
1503530527802,0.17967712879180908,-0.21587403118610382,9.119781523942947
1503530527852,0.18254338204860687,-0.2179434895515442,9.120648976415396
1503530527902,0.17687714099884033,-0.22680328786373138,9.117692619562149
1503530527952,0.17027407884597778,-0.2301953360438347,9.120322167873383
1503530528002,0.17425072193145752,-0.22416651248931885,9.118086576461792
1503530528052,0.1844155490398407,-0.2155827134847641,9.110659122467041
1503530528102,0.1754283905029297,-0.2117486596107483,9.11286461353302
1503530528152,0.1688288450241089,-0.20524410903453827,9.110496401786804
1503530528202,0.18155282735824585,-0.20976287126541138,9.128026723861694
1503530528252,0.18402099609375,-0.21553832292556763,9.132335782051086
1503530528302,0.17364442348480225,-0.21780333667993546,9.13644054532051
1503530528352,0.17121541500091553,-0.21173095703125,9.133038520812988
1503530528402,0.171722412109375,-0.2114052176475525,9.129908353090286
1503530528452,0.16706972382962704,-0.21486212313175201,9.112056016921997
1503530528502,0.16754699684679508,-0.2182171642780304,9.111438632011414
1503530528552,0.17537575960159302,-0.2270703911781311,9.130453884601593
1503530528602,0.17629599571228027,-0.21585702896118164,9.111527681350708
1503530528652,0.17384949326515198,-0.21745610237121582,9.099386423826218
1503530528702,0.16684681177139282,-0.2209852635860443,9.109429359436035
1503530528752,0.17891299724578857,-0.22405660152435303,9.123195767402649
1503530528802,0.17813271284103394,-0.21076345443725586,9.135452210903168
1503530528852,0.1766880452632904,-0.21979594230651855,9.135559052228928
1503530528902,0.1741766333580017,-0.2307727038860321,9.122841119766235
1503530528952,0.18757569789886475,-0.2273077368736267,9.118314322084188
1503530529002,0.18531394004821777,-0.22649741917848587,9.129188358783722
1503530529052,0.16816484928131104,-0.2342202067375183,9.100869417190552
1503530529102,0.17313992977142334,-0.2164372205734253,9.103416442871094
1503530529152,0.17680359,-0.21653121709823608,9.096518456935883
1503530529202,0.17495758831501007,-0.21565371751785278,9.12345290184021
1503530529252,0.16457384824752808,-0.22265809774398804,9.1191685795784
1503530529302,0.16764920949935913,-0.23216873407363892,9.109784454107285
1503530529352,0.19115936756134033,-0.22285491228103638,9.13163936138153
1503530529402,0.18047499656677246,-0.21759842336177826,9.123676419258118
1503530529452,0.1728200912475586,-0.2318180799484253,9.15955924987793
1503530529502,0.1793801486492157,-0.2273450493812561,9.11168122291565
1503530529552,0.16422605514526367,-0.2273535132408142,9.126591086387634
1503530529602,0.17869973182678223,-0.21626627445220947,9.132197491824627
1503530529652,0.17467889189720154,-0.2202540934085846,9.120455741882324
1503530529702,0.16301989555358887,-0.22175505012273788,9.116039589047432
1503530529752,0.16249239817261696,-0.23614251613616943,9.125595152378082
1503530529802,0.18623077869415283,-0.2263326644897461,9.12712523713708
1503530529852,0.1717616319656372,-0.21285510063171387,9.09476351737976
1503530529902,0.17622342705726624,-0.22211629152297974,9.081724882125854
1503530529952,0.1601409912109375,-0.2156524658203125,9.109573006629944
1503530530002,0.19155895709991455,-0.217559814453125,9.122421026229858
1503530530052,0.17814511060714722,-0.21822714805603027,9.139284133911133
1503530530102,0.1745203733444214,-0.226232647895813,9.081228852272034
1503530530152,0.17626070976257324,-0.19628942012786865,9.1089126765728
1503530530202,0.16836702823638916,-0.21359938383102417,9.114086866378784
1503530530252,0.17670083045959473,-0.21330785751342773,9.125346332788467
1503530530302,0.1666625738143921,-0.2334076166152954,9.129565596580505
1503530530352,0.1803724765777588,-0.2160525918006897,9.11368978023529
1503530530402,0.16284364461898804,-0.2042466402053833,9.123869597911835
1503530530452,0.1701377034187317,-0.21299093961715698,9.120725393295288
1503530530502,0.15657532215118408,-0.2008092999458313,9.131439685821533
1503530530552,0.1447499543428421,-0.19327032566070557,9.082120180130005
1503530530602,0.1481415033340454,-0.20983582735061646,9.101577997207642
1503530530652,0.1802527904510498,-0.21635687351226807,9.077900409698486
1503530530702,0.1982746124267578,-0.21168005466461182,9.139101639389992
1503530530752,0.17814236879348755,-0.22900390625,9.127741575241089
1503530530802,0.16562199592590332,-0.21913740038871765,9.095855474472046
1503530530852,0.16755372285842896,-0.22092580795288086,9.086875557899475
1503530530902,0.17728939652442932,-0.23605632781982422,9.10256552696228
1503530530952,0.14578866958618164,-0.21115779876708984,9.07373046875
1503530531002,0.09793710708618164,-0.19089925289154053,9.016218185424805
1503530531052,0.14712870121002197,-0.22141170501708984,9.11142647266388
1503530531102,0.19324493408203125,-0.2242584228515625,9.0252685546875
1503530531152,0.173309326171875,-0.22247314453125,9.160354614257812
1503530531202,0.16823101043701172,-0.22659915685653687,9.07434368133545
1503530531252,0.178466796875,-0.256591796875,9.158370971679688
1503530531302,0.183624267578125,-0.22591149806976318,9.09000015258789
1503530531352,0.16680288314819336,-0.23326408863067627,9.125284194946289
1503530531402,0.15990018844604492,-0.2232666015625,9.153371810913086
1503530531452,0.141571044921875,-0.21041250228881836,9.176700592041016
1503530531502,0.20964956283569336,-0.21898198127746582,9.0862455368042
1503530531552,0.15180683135986328,-0.20231926441192627,9.081960916519165
1503530531602,0.189178466796875,-0.25421142578125,8.985794067382812
1503530531652,0.203460693359375,-0.23826265335083008,9.120760917663574
1503530531702,0.18060970306396484,-0.22897958755493164,9.135757446289062
1503530531752,0.19060707092285156,-0.24564361572265625,9.118618965148926
1503530531802,0.18560791015625,-0.2484985589981079,9.106002569198608
1503530531852,0.160614013671875,-0.23088359832763672,9.164321899414062
1503530531902,0.19036865234375,-0.217315673828125,9.166702270507812
1503530531952,0.170135498046875,-0.24945068359375,9.082199096679688
1503530532002,0.19060707092285156,-0.22802734375,9.13718557357788
1503530532052,0.16846925020217896,-0.23183631896972656,9.100765228271484
1503530532102,0.41388702392578125,-0.16185379028320312,10.020751953125
1503530532152,0.189178466796875,-0.22954177856445312,9.124504566192627
1503530532202,0.14276123046875,-0.21445941925048828,9.119809031486511
1503530532252,0.182037353515625,-0.22802734375,9.085769653320312
1503530532302,0.17513418197631836,-0.21826744079589844,9.126949310302734
1503530532352,0.14966416358947754,-0.22469520568847656,9.12195098400116
1503530532402,0.15633010864257812,-0.22469520568847656,9.067203521728516
1503530532452,0.178863525390625,-0.231201171875,9.074661254882812
1503530532502,0.178070068359375,-0.20263671875,9.150039672851562
1503530532552,0.208221435546875,-0.210174560546875,9.127426147460938
1503530532602,0.17608642578125,-0.2137451171875,9.139328241348267
1503530532652,0.15870976448059082,-0.22850322723388672,9.126235961914062
1503530532702,0.17203974723815918,-0.21660161018371582,9.156704902648926
1503530532752,0.17156314849853516,-0.248260498046875,9.123379468917847
1503530532802,0.22155141830444336,-0.21469736099243164,9.08862590789795
1503530532852,0.167755126953125,-0.199462890625,9.133377075195312
1503530532902,0.184417724609375,-0.21612548828125,9.095290660858154
1503530532952,0.19329071044921875,-0.17306232452392578,9.10091781616211
1503530533002,0.172515869140625,-0.21396160125732422,9.121908187866211
1503530533052,0.16918182373046875,-0.2665901184082031,9.321903228759766
1503530533102,0.16256141662597656,-0.20941734313964844,9.138570785522461
1503530533152,0.16585075855255127,-0.23802471160888672,9.108619689941406
1503530533202,0.20203256607055664,-0.24659419059753418,9.10528838634491
1503530533252,0.18084716796875,-0.224456787109375,9.130996465682983
1503530533302,0.178070068359375,-0.21295166015625,9.160354614257812
1503530533352,0.18703603744506836,-0.23207378387451172,9.118143081665039
1503530533402,0.186798095703125,-0.23183536529541016,9.10005235671997
1503530533452,0.16727900505065918,-0.20755577087402344,9.154800415039062
1503530533502,0.16394639015197754,-0.21041250228881836,9.102908611297607
1503530533552,0.151092529296875,-0.2470703125,9.126235961914062
1503530533602,0.16275644302368164,-0.22160041332244873,9.123855590820312
1503530533652,0.19579124450683594,-0.23939990997314453,9.100051403045654
1503530533702,0.172515869140625,-0.20374774932861328,9.153848648071289
1503530533752,0.1770385503768921,-0.21922016143798828,9.059585571289062
1503530533802,0.20064759254455566,-0.2232666,9.116714477539062
1503530533852,0.18965446949005127,-0.19851064682006836,9.117666721343994
1503530533902,0.182037353515625,-0.2137451171875,9.084579467773438
1503530533952,0.18632221221923828,-0.20993661880493164,9.117666721343994
1503530534002,0.17798995971679688,-0.19613027572631836,9.128854751586914
1503530534052,0.18831276893615723,-0.2195878028869629,9.141599655151367
1503530534102,0.18870234489440918,-0.21422100067138672,9.130520343780518
1503530534152,0.159820556640625,-0.21771240234375,9.126236915588379
1503530534202,0.174896240234375,-0.19517815113067627,9.127902030944824
1503530534252,0.134429931640625,-0.199462890625,9.085770606994629
1503530534302,0.16823124885559082,-0.23754883,9.128378868103027
1503530534352,0.17061138153076172,-0.19803476333618164,9.050064086914062
1503530534402,0.16180419921875,-0.22993159294128418,9.060298919677734
1503530534452,0.169342041015625,-0.2105712890625,9.12623643875122
1503530534502,0.18775027990341187,-0.22231435775756836,9.082437515258789
1503530534552,0.179656982421875,-0.214935302734375,9.291671752929688
1503530534602,0.18485045433044434,-0.20703673362731934,9.119311094284058
1503530534652,0.19298720359802246,-0.22041010856628418,9.123379707336426
1503530534702,0.194732666015625,-0.20819091796875,9.118830442428589
1503530534752,0.18346500396728516,-0.208984375,9.138137817382812
1503530534802,0.17108750343322754,-0.23135972023010254,9.132661819458008
1503530534852,0.155853271484375,-0.23992919921875,9.216690063476562
1503530534902,0.174896240234375,-0.22564697265625,9.152420043945312
1503530534952,0.16385996341705322,-0.21223020553588867,9.064562797546387
1503530535002,0.14633179,-0.208984375,9.16384506225586
1503530535052,0.162994384765625,-0.22017210721969604,9.084817886352539
1503530535102,0.16251754760742188,-0.23897743225097656,9.145517349243164
1503530535152,0.18614888191223145,-0.21937143802642822,9.131213188171387
1503530535202,0.19036865234375,-0.1851806640625,9.103622436523438
1503530535252,0.17394399642944336,-0.21660137176513672,9.14242172241211
1503530535302,0.201873779296875,-0.2073974609375,9.127029299736023
1503530535352,0.16680240631103516,-0.23326420783996582,9.089340209960938
1503530535402,0.160614013671875,-0.23612117767333984,9.123379468917847
1503530535452,0.20250844955444336,-0.24445247650146484,9.13051986694336
1503530535502,0.191558837890625,-0.23516845703125,9.104812979698181
1503530535552,0.203460693359375,-0.19232177734375,9.090529918670654
1503530535602,0.16632747650146484,-0.21326923370361328,9.14194631576538
1503530535652,0.17870330810546875,-0.22898006439208984,9.10909652709961
1503530535702,0.189178466796875,-0.23421669006347656,9.098623633384705
1503530535752,0.197113037109375,-0.234375,9.158767700195312
1503530535802,0.18298959732055664,-0.22469496726989746,9.108145236968994
1503530535852,0.153472900390625,-0.2232666015625,9.150039999999999
1503530535902,0.159423828125,-0.210174560546875,9.17146348953247
1503530535952,0.191558837890625,-0.22850346565246582,9.133377075195312
1503530536002,0.21226835250854492,-0.21636390686035156,9.090768337249756
1503530536052,0.18013286590576172,-0.20755672454833984,9.155275821685791
1503530536102,0.18822574615478516,-0.24278557300567627,9.081009
1503530536152,0.136810302734375,-0.23992919921875,9.102431774139404
1503530536202,0.170135498046875,-0.23040771484375,9.138138055801392
1503530536252,0.17799091339111328,-0.24992656707763672,9.153848648071289
1503530536302,0.15014028549194336,-0.2423095703125,9.134329319000244
1503530536352,0.16585081815719604,-0.25325965881347656,9.161465406417847
1503530536402,0.18346548080444336,-0.24659347534179688,9.153610229492188
1503530536452,0.18584585189819336,-0.2223144769668579,9.102909088134766
1503530536502,0.196319580078125,-0.210174560546875,9.117904663085938
1503530536552,0.16489863395690918,-0.23421621322631836,9.104812622070312
1503530536602,0.18370342254638672,-0.19851064682006836,9.108621597290039
1503530536652,0.19608211517333984,-0.23016977310180664,9.098861694335938
1503530536702,0.1668030023574829,-0.21564960479736328,9.147659301757812
1503530536752,0.18251323699951172,-0.22183799743652344,9.13766098022461
1503530536802,0.23224157094955444,-0.2267289161682129,9.155881881713867
1503530536852,0.205841064453125,-0.2232666015625,9.08815050125122
1503530536902,0.20941162109375,-0.19398784637451172,9.11076307296753
1503530536952,0.17537230253219604,-0.2432616949081421,9.152420043945312
1503530537002,0.16585063934326172,-0.22993159294128418,9.082674503326416
1503530537052,0.17203950881958008,-0.20708036422729492,9.111477851867676
1503530537102,0.199493408203125,-0.21559667587280273,9.136286735534668
1503530537152,0.141571044921875,-0.21612548828125,9.183364868164062
1503530537202,0.1701355,-0.21374512,9.130996704101562
1503530537252,0.18060922622680664,-0.23421621322631836,9.103146076202393
1503530537302,0.16272997856140137,-0.1846516728401184,9.095026016235352
1503530537352,0.16727876663208008,-0.23374032974243164,9.152420043945312
1503530537402,0.18846511840820312,-0.191131591796875,9.174080848693848
1503530537452,0.198699951171875,-0.22088623046875,9.042922973632812
1503530537502,0.19727158546447754,-0.26111602783203125,9.335472106933594
1503530537552,0.19917583465576172,-0.2573051452636719,9.133614540100098
1503530537602,0.18632197380065918,-0.19708251953125,9.083866119384766
1503530537652,0.129669189453125,-0.21612549,9.092673301696777
1503530537702,0.15204429626464844,-0.208984375,9.101956367492676
1503530537752,0.186798095703125,-0.23225879669189453,9.157710075378418
1503530537802,0.17859888076782227,-0.21559643745422363,9.126235961914062
1503530537852,0.19251155853271484,-0.19993889331817627,9.12671184539795
1503530537902,0.185211181640625,-0.2010498046875,9.142105102539062
1503530537952,0.17066478729248047,-0.18808984756469727,9.125970840454102
1503530538002,0.17674732208251953,-0.1915283203125,9.125706911087036
1503530538052,0.19703388214111328,-0.21065044403076172,9.131948471069336
1503530538102,0.184417724609375,-0.199462890625,9.214309692382812
1503530538152,0.17322993278503418,-0.229217529296875,9.187410354614258
1503530538202,0.18608379364013672,-0.23731040954589844,9.129566192626953
1503530538252,0.190765380859375,-0.23411083221435547,9.170140266418457
1503530538302,0.15609121322631836,-0.24754643440246582,9.123617172241211
1503530538352,0.18251371383666992,-0.21802949905395508,9.180984497070312
1503530538402,0.17775249481201172,-0.24373817443847656,9.147658999999999
1503530538452,0.172515869140625,-0.241119384765625,9.132186889648438
1503530538502,0.16489839553833008,-0.19993925094604492,9.113382339477539
1503530538552,0.17418217658996582,-0.20089101791381836,9.110287189483643
1503530538602,0.18298959732055664,-0.21874427795410156,9.080294609069824
1503530538652,0.1882263422012329,-0.2080322504043579,9.124331951141357
1503530538702,0.18989276885986328,-0.21802973747253418,9.096719026565552
1503530538752,0.196319580078125,-0.19232177734375,9.11195421218872
1503530538802,0.1584717035293579,-0.23350238800048828,9.0957670211792
1503530538852,0.172515869140625,-0.21707773208618164,9.099575757980347
1503530538902,0.186798095703125,-0.19851064682006836,9.148135423660278
1503530538952,0.14704608917236328,-0.22707557678222656,9.16908311843872
1503530539002,0.18632197380065918,-0.2365967035293579,9.159560918807983
1503530539052,0.16870689392089844,-0.24849796295166016,9.141469955444336
1503530539102,0.16431808471679688,-0.23860692977905273,9.125178337097168
1503530539152,0.19489139318466187,-0.22374296188354492,9.101004004478455
1503530539202,0.17227745056152344,-0.18351459503173828,9.127426624298096
1503530539252,0.17084980010986328,-0.210174560546875,9.116476058959961
1503530539302,0.15368938446044922,-0.23343729972839355,9.122124671936035
1503530539352,0.18060898780822754,-0.20517635345458984,9.04125690460205
1503530539402,0.155853271484375,-0.2042236328125,9.140518188476562
1503530539452,0.16277790069580078,-0.20465636253356934,9.11281967163086
1503530539502,0.18584585189819336,-0.22493267059326172,9.10243272781372
1503530539552,0.1603759527206421,-0.22231388092041016,9.14932632446289
1503530539602,0.13728713989257812,-0.19541549682617188,9.135043144226074
1503530539652,0.15204477310180664,-0.22421836853027344,9.095291137695312
1503530539702,0.1689453125,-0.219696044921875,9.090530395507812
1503530539752,0.179656982421875,-0.212554931640625,9.148849487304688
1503530539802,0.196319580078125,-0.23421573638916016,9.112905502319336
1503530539852,0.17180174589157104,-0.193511962890625,9.141470432281494
1503530539902,0.16918373107910156,-0.2099364995956421,9.08719778060913
1503530539952,0.1929870843887329,-0.21517276763916016,9.079105377197266
1503530540002,0.15252017974853516,-0.22493278980255127,9.152657985687256
1503530540052,0.136810302734375,-0.20184326171875,9.15718126296997
1503530540102,0.15561485290527344,-0.26349449157714844,9.13290023803711
1503530540152,0.135223388671875,-0.18094921112060547,9.078099250793457
1503530540202,0.1853698492050171,-0.25421142578125,9.130996704101562
1503530540252,0.20869755744934082,-0.18827515840530396,9.136947393417358
1503530540302,0.15775775909423828,-0.2327880859375,9.10671615600586
1503530540352,0.178070068359375,-0.21136475,9.092646598815918
1503530540402,0.1689453125,-0.22088623046875,9.110763788223267
1503530540452,0.179656982421875,-0.20660400390625,9.0957670211792
1503530540502,0.19203472137451172,-0.2044616937637329,9.102670669555664
1503530540552,0.15799522399902344,-0.23183584213256836,9.103382110595703
1503530540602,0.20488929748535156,-0.20993661880493164,9.152419090270996
1503530540652,0.201080322265625,-0.24468994140625,9.026260375976562
1503530540702,0.186798095703125,-0.22564697265625,9.107192993164062
1503530540752,0.17894291877746582,-0.22469472885131836,9.113857746124268
1503530540802,0.14966392517089844,-0.25754356384277344,9.13528060913086
1503530540852,0.18060922622680664,-0.23469239473342896,9.11909532546997
1503530540902,0.15894776582717896,-0.22802734,9.188840389251709
1503530540952,0.19060659408569336,-0.21993404626846313,9.122426986694336
1503530541002,0.1737060546875,-0.22802734375,9.126235961914062
1503530541052,0.15849828720092773,-0.23702001571655273,9.07492446899414
1503530541102,0.17822837829589844,-0.2327880859375,9.1052885055542
1503530541152,0.155853271484375,-0.24302387237548828,9.139328002929688
1503530541202,0.1644226312637329,-0.20612812042236328,9.09528923034668
1503530541252,0.16511011123657227,-0.24759912490844727,9.089736461639404
1503530541302,0.198699951171875,-0.22826528549194336,9.076248168945312
1503530541352,0.191558837890625,-0.22564697265625,9.076247692108154
1503530541402,0.18013310432434082,-0.23207378387451172,9.054824829101562
1503530541452,0.21155357360839844,-0.25897216796875,9.106239318847656
1503530541502,0.181243896484375,-0.2531534433364868,9.131261825561523
1503530541552,0.1615661382675171,-0.22088623046875,9.071249961853027
1503530541602,0.17299175262451172,-0.20660400390625,9.128140568733215
1503530541652,0.179656982421875,-0.224456787109375,9.115524291992188
1503530541702,0.179656982421875,-0.20993661880493164,9.13051986694336
1503530541752,0.19346332550048828,-0.21564960479736328,9.114334106445312
1503530541802,0.14657020568847656,-0.23016929626464844,9.161703109741211
1503530541852,0.212982177734375,-0.22088623046875,9.10671615600586
1503530541902,0.19499707221984863,-0.21903479099273682,9.102696418762207
1503530541952,0.19417715072631836,-0.23231196403503418,9.109811305999756
1503530542002,0.186798095703125,-0.20660400390625,9.152421951293945
1503530542052,0.140380859375,-0.19565439224243164,9.170035362243652
1503530542102,0.184417724609375,-0.23421621322631836,9.12099838256836
1503530542152,0.15638220310211182,-0.20872020721435547,9.13073205947876
1503530542202,0.1989380121231079,-0.23921507596969604,9.095767498016357
1503530542252,0.19251108169555664,-0.21231651306152344,9.1243314743042
1503530542302,0.193939208984375,-0.207794189453125,9.172653198242188
1503530542352,0.16156601905822754,-0.21088862419128418,9.091958999633789
1503530542402,0.170135498046875,-0.21660137176513672,9.147659301757812
1503530542452,0.18703603744506836,-0.231597900390625,9.049349784851074
1503530542502,0.17346858978271484,-0.26230430603027344,9.150514602661133
1503530542552,0.1608784794807434,-0.20819091796875,9.143163681030273
1503530542602,0.17561054229736328,-0.23493045568466187,9.11576247215271
1503530542652,0.146331787109375,-0.2232666015625,9.11195421218872
1503530542702,0.162994384765625,-0.20660400390625,9.069107055664062
1503530542752,0.18060922622680664,-0.22588491439819336,9.166702270507812
1503530542802,0.17814159393310547,-0.218505859375,9.187261581420898
1503530542852,0.18275147676467896,-0.21303176879882812,9.112905979156494
1503530542902,0.1877502202987671,-0.2289794683456421,9.125761032104492
1503530542952,0.172515869140625,-0.22088623046875,9.144088745117188
1503530543002,0.172515869140625,-0.23834228515625,9.126500129699707
1503530543052,0.16489887237548828,-0.22993183135986328,9.128140568733215
1503530543102,0.162994384765625,-0.20922231674194336,9.084579706192017
1503530543152,0.18060922622680664,-0.22279071807861328,9.100526809692383
1503530543202,0.16624045372009277,-0.22737789154052734,9.081225395202637
1503530543252,0.16442251205444336,-0.24683237075805664,9.127902507781982
1503530543302,0.165374755859375,-0.1851806640625,9.133377000000001
1503530543352,0.17156314849853516,-0.24040508270263672,9.0719633102417
1503530543402,0.160614013671875,-0.25421142578125,9.140041828155518
1503530543452,0.18489360809326172,-0.2246948480606079,9.100052
1503530543502,0.18831253051757812,-0.24274253845214844,9.158045768737793
1503530543552,0.1687072515487671,-0.22183847427368164,9.112430572509766
1503530543602,0.17132568359375,-0.226837158203125,9.094101428985596
1503530543652,0.165374755859375,-0.237548828125,9.113143920898438
1503530543702,0.165374755859375,-0.21439433097839355,9.085553169250488
1503530543752,0.17084956169128418,-0.20946025848388672,9.081247329711914
1503530543802,0.17674779891967773,-0.18306469917297363,9.15347671508789
1503530543852,0.17198705673217773,-0.20819091796875,9.133905410766602
1503530543902,0.16942143440246582,-0.1947021484375,9.061727523803711
1503530543952,0.132049560546875,-0.2232666015625,9.178604006767273
1503530544002,0.16275638341903687,-0.20493793487548828,9.108144760131836
1503530544052,0.15918636322021484,-0.26468467712402344,9.126710891723633
1503530544102,0.19179630279541016,-0.19184565544128418,9.087674140930176
1503530544152,0.180450439453125,-0.2216796875,9.136550903320312
1503530544202,0.20441293716430664,-0.20708000659942627,9.127663612365723
1503530544252,0.18653357028961182,-0.24468994140625,9.115657806396484
1503530544302,0.17145824432373047,-0.18729650974273682,9.109572410583496
1503530544352,0.158233642578125,-0.21755385398864746,9.09909987449646
1503530544402,0.13633346557617188,-0.2211242914199829,9.138376235961914
1503530544452,0.174896240234375,-0.23135995864868164,9.077676773071289
1503530544502,0.178070068359375,-0.2232666015625,9.074662208557129
1503530544552,0.1867981,-0.21041250228881836,9.08291244506836
1503530544602,0.17251587,-0.21612548828125,9.154800415039062
1503530544652,0.165374755859375,-0.237548828125,9.100051879882812
1503530544702,0.18013286590576172,-0.21041250228881836,9.1528959274292
1503530544752,0.14490509033203125,-0.21707773208618164,9.17574691772461
1503530544802,0.173309326171875,-0.2359619140625,9.142898559570312
1503530544852,0.16870737075805664,-0.20707988739013672,9.125284194946289
1503530544902,0.17467975616455078,-0.2388472557067871,9.107192993164062
1503530544952,0.178466796875,-0.22802734375,9.116714477539062
1503530545002,0.169342041015625,-0.20184326171875,9.136551141738892
1503530545052,0.19251108169555664,-0.17256498336791992,9.08886432647705
1503530545102,0.183624267578125,-0.20977783203125,9.127029180526733
1503530545152,0.18108510971069336,-0.20231938362121582,9.143850326538086
1503530545202,0.15442514419555664,-0.24707031,9.108619689941406
1503530545252,0.146331787109375,-0.2470703125,9.12385606765747
1503530545302,0.18251371383666992,-0.22112417221069336,9.15408706665039
1503530545352,0.17912793159484863,-0.22987842559814453,9.120681524276733
1503530545402,0.19869995,-0.20078539848327637,9.123590469360352
1503530545452,0.16656494140625,-0.2570676803588867,9.140518188476562
1503530545502,0.16823101043701172,-0.20993638038635254,9.16098928451538
1503530545552,0.14990234375,-0.217315673828125,9.164322137832642
1503530545602,0.17463111877441406,-0.2137451171875,9.093439102172852
1503530545652,0.18108463287353516,-0.23516846,9.110049605369568
1503530545702,0.18870234489440918,-0.25444984436035156,9.106002807617188
1503530545752,0.18156147003173828,-0.21564936637878418,9.09433925151825
1503530545802,0.16489791870117188,-0.2432616949081421,9.132901191711426
1503530545852,0.16513681411743164,-0.24254757165908813,9.057205200195312
1503530545902,0.217742919921875,-0.218505859375,9.195266723632812
1503530545952,0.1941772699356079,-0.22755146026611328,9.125759840011597
1503530546002,0.17870497703552246,-0.20850801467895508,9.152181625366211
1503530546052,0.186798095703125,-0.21136474609375,9.105287551879883
1503530546102,0.18179893493652344,-0.19160765409469604,9.130758285522461
1503530546152,0.160614013671875,-0.21517324447631836,9.105764925479889
1503530546202,0.179656982421875,-0.23516845703125,9.139328002929688
1503530546252,0.177276611328125,-0.188751220703125,9.091720581054688
1503530546302,0.17822837829589844,-0.1947021484375,9.10957384109497
1503530546352,0.17632436752319336,-0.241119384765625,9.08053207397461
1503530546402,0.18298959732055664,-0.22136235237121582,9.118142127990723
1503530546452,0.16669726371765137,-0.21824121475219727,9.072017669677734
1503530546502,0.193939208984375,-0.2042236328125,9.050064086914062
1503530546552,0.139190673828125,-0.20184326171875,9.100051999092102
1503530546602,0.18989253044128418,-0.16947078704833984,9.115524291992188
1503530546652,0.20298480987548828,-0.23088377714157104,9.079105377197266
1503530546702,0.1849467158317566,-0.22220802307128906,9.096878051757812
1503530546752,0.20369911193847656,-0.21469736099243164,9.13099718093872
1503530546802,0.15156841278076172,-0.23374032974243164,9.100051879882812
1503530546852,0.1689453125,-0.23992919921875,9.148849487304688
1503530546902,0.17346763610839844,-0.17756342887878418,9.06863021850586
1503530546952,0.17632436752319336,-0.21422195434570312,9.109573364257812
1503530547002,0.1546633243560791,-0.19660639762878418,9.07458209991455
1503530547052,0.17511272430419922,-0.20249271392822266,9.08988094329834
1503530547102,0.17680072784423828,-0.20041513442993164,9.061014175415039
1503530547152,0.20917344093322754,-0.22755146026611328,9.098146438598633
1503530547202,0.160614013671875,-0.2232666015625,9.180984497070312
1503530547252,0.19965219497680664,-0.22564697265625,9.138851165771484
1503530547302,0.215362548828125,-0.23939990997314453,9.138931274414062
1503530547352,0.154266357421875,-0.186767578125,9.132583618164062
1503530547402,0.19350647926330566,-0.19491863250732422,9.111088752746582
1503530547452,0.16632694005966187,-0.23659658432006836,9.145755767822266
1503530547502,0.19036865234375,-0.22802734375,9.094100952148438
1503530547552,0.16965937614440918,-0.22802734375,9.113858222961426
1503530547602,0.17156362533569336,-0.20660400390625,9.085293769836426
1503530547652,0.17799091339111328,-0.21207857131958008,9.119094848632812
1503530547702,0.17822885513305664,-0.2365967035293579,9.069107055664062
1503530547752,0.19917583465576172,-0.23088359832763672,9.119094848632812
1503530547802,0.179656982421875,-0.1756591796875,9.05244255065918
1503530547852,0.174896240234375,-0.180419921875,9.17146110534668
1503530547902,0.14776039123535156,-0.19422626495361328,9.106002807617188
1503530547952,0.18584632873535156,-0.22755146026611328,9.12195110321045
1503530548002,0.168548583984375,-0.20977783203125,9.136550903320312
1503530548052,0.197509765625,-0.21445924043655396,9.13551926612854
1503530548102,0.18536996841430664,-0.206604,9.085769653320312
1503530548152,0.16180419921875,-0.219696044921875,9.145278930664062
1503530548202,0.188385009765625,-0.22220849990844727,9.091323375701904
1503530548252,0.175689697265625,-0.20977783203125,9.078628540039062
1503530548302,0.13657188415527344,-0.21945810317993164,9.10433578491211
1503530548352,0.18156099319458008,-0.20993709564208984,9.139090538024902
1503530548402,0.22750282287597656,-0.22279071807861328,9.158608675003052
1503530548452,0.14776039123535156,-0.21588706970214844,9.098147511482239
1503530548502,0.215362548828125,-0.26611328125,9.116714477539062
1503530548552,0.17918086051940918,-0.25325918197631836,9.123855590820312
1503530548602,0.20298480987548828,-0.1866089105606079,9.098623275756836
1503530548652,0.17132568359375,-0.20089149475097656,9.108383178710938
1503530548702,0.15775775909423828,-0.23136043548583984,9.094815254211426
1503530548752,0.20536518096923828,-0.21279287338256836,9.101004004478455
1503530548802,0.17225122451782227,-0.21612548828125,9.092117309570312
1503530548852,0.166168212890625,-0.21348094940185547,9.12173843383789
1503530548902,0.184417724609375,-0.18994140625,9.131790161132812
1503530548952,0.19060659408569336,-0.22183847427368164,9.14694595336914
1503530549002,0.151092529296875,-0.20850849151611328,9.134329199790955
1503530549052,0.14561748504638672,-0.23564457893371582,9.128854751586914
1503530549102,0.148712158203125,-0.23040771484375,9.090529918670654
1503530549152,0.189178466796875,-0.25897216796875,9.100051879882812
1503530549202,0.14942646026611328,-0.20755624771118164,9.137899398803711
1503530549252,0.17775249481201172,-0.22231435775756836,9.157180786132812
1503530549302,0.19346332550048828,-0.1763744354248047,9.041732788085938
1503530549352,0.152679443359375,-0.21929931640625,9.102432250976562
1503530549402,0.14680767059326172,-0.22183841466903687,9.10195541381836
1503530549452,0.18874549865722656,-0.20725321769714355,9.058286666870117
1503530549502,0.19208908081054688,-0.20713305473327637,9.078892707824707
1503530549552,0.18108510971069336,-0.19137001037597656,9.121475219726562
1503530549602,0.20250844955444336,-0.1985107660293579,9.086484014987946
1503530549652,0.22440767288208008,-0.23088455200195312,9.084342956542969
1503530549702,0.20973587036132812,-0.2221851348876953,9.126668453216553
1503530549752,0.16180419921875,-0.23088383674621582,9.123855590820312
1503530549802,0.186798095703125,-0.22564697265625,9.135757088661194
1503530549852,0.16466045379638672,-0.20731830596923828,9.137899398803711
1503530549902,0.17198693752288818,-0.2137451171875,9.105077385902405
1503530549952,0.15888309478759766,-0.20227622985839844,9.135974168777466
1503530550002,0.182830810546875,-0.2296142578125,9.123062133789062
1503530550052,0.19251155853271484,-0.21184074878692627,9.089577972888947
1503530550102,0.165374755859375,-0.218505859375,9.089340209960938
1503530550152,0.15400314331054688,-0.24654126167297363,9.102696418762207
1503530550202,0.1758483648300171,-0.20374751091003418,9.11100149154663
1503530550252,0.19227266311645508,-0.236358642578125,9.106478989124298
1503530550302,0.19013023376464844,-0.22659969329833984,9.120047092437744
1503530550352,0.189178466796875,-0.22300195693969727,9.138137340545654
1503530550402,0.16204214096069336,-0.23207390308380127,9.071487426757812
1503530550452,0.191558837890625,-0.256591796875,9.154799461364746
1503530550502,0.160614013671875,-0.20517635345458984,9.100051879882812
1503530550552,0.17203950881958008,-0.22707509994506836,9.103384017944336
1503530550602,0.18060874938964844,-0.17327880859375,9.146231174468994
1503530550652,0.17727661,-0.19160747528076172,9.08862590789795
1503530550702,0.17061161994934082,-0.19374990463256836,9.07577133178711
1503530550752,0.134429931640625,-0.233978271484375,9.101242065429688
1503530550802,0.19499719142913818,-0.20766210556030273,9.115392684936523
1503530550852,0.17442035675048828,-0.20517539978027344,9.141946792602539
1503530550902,0.16727900505065918,-0.2127929925918579,9.056015968322754
1503530550952,0.1739441156387329,-0.24183273315429688,9.121475219726562
1503530551002,0.18060922622680664,-0.23802471160888672,9.094100952148438
1503530551052,0.186798095703125,-0.20184326171875,9.116714477539062
1503530551102,0.193939208984375,-0.2327880859375,9.05958604812622
1503530551152,0.20417404174804688,-0.2282654047012329,9.200027465820312
1503530551202,0.16643238067626953,-0.218505859375,9.100051403045654
1503530551252,0.19023609161376953,-0.243896484375,9.081539154052734
1503530551302,0.15061640739440918,-0.25159311294555664,9.102670669555664
1503530551352,0.19536781311035156,-0.21469736099243164,9.117666244506836
1503530551402,0.174896240234375,-0.205413818359375,9.142899
1503530551452,0.1927490234375,-0.2042236328125,9.13218641281128
1503530551502,0.17465782165527344,-0.22636109590530396,9.120285034179688
1503530551552,0.189178466796875,-0.21184086799621582,9.086008071899414
1503530551602,0.18727493286132812,-0.21517324447631836,9.081484317779541
1503530551652,0.19251108169555664,-0.23897719383239746,9.10647964477539
1503530551702,0.158233642578125,-0.22564697265625,9.104812622070312
1503530551752,0.158233642578125,-0.2470703125,9.114333868026733
1503530551802,0.1794189214706421,-0.22302865982055664,9.116952896118164
1503530551852,0.18138790130615234,-0.2299749255180359,9.162806510925293
1503530551902,0.197113037109375,-0.20078563690185547,9.138402938842773
1503530551952,0.1917968988418579,-0.20446157455444336,9.180032730102539
1503530552002,0.193939208984375,-0.22897958755493164,9.092910766601562
1503530552052,0.16180419921875,-0.229217529296875,9.111953735351562
1503530552102,0.155853271484375,-0.20237255096435547,9.109044790267944
1503530552152,0.177276611328125,-0.22421884536743164,9.128140449523926
1503530552202,0.18037128448486328,-0.23326420783996582,9.098148345947266
1503530552252,0.1806091070175171,-0.20946043729782104,9.103384017944336
1503530552302,0.15056419372558594,-0.26055908203125,9.10534143447876
1503530552352,0.172515869140625,-0.17994308471679688,9.047683238983154
1503530552402,0.201080322265625,-0.21612549,9.119094848632812
1503530552452,0.15442466735839844,-0.21564948558807373,9.145753860473633
1503530552502,0.17537212371826172,-0.21755361557006836,9.066250324249268
1503530552552,0.14299964904785156,-0.22945547103881836,9.151468276977539
1503530552602,0.15847206115722656,-0.15471172332763672,9.188125610351562
1503530552652,0.16918325424194336,-0.21088862419128418,9.133853435516357
1503530552702,0.143951416015625,-0.21807312965393066,9.165836334228516
1503530552752,0.196319580078125,-0.207794189453125,9.11433458328247
1503530552802,0.17584896087646484,-0.25992435216903687,9.14480209350586
1503530552852,0.14847469329833984,-0.24992680549621582,9.107429504394531
1503530552902,0.13654518127441406,-0.21824073791503906,9.111159801483154
1503530552952,0.16710615158081055,-0.19535112380981445,9.131429195404053
1503530553002,0.16037601232528687,-0.22017192840576172,9.133615493774414
1503530553052,0.162994384765625,-0.18994140625,9.154800415039062
1503530553102,0.141571044921875,-0.24945068359375,9.169082641601562
1503530553152,0.18653345108032227,-0.21136475,9.136286735534668
1503530553202,0.170135498046875,-0.23781347274780273,9.132847309112549
1503530553252,0.18560791015625,-0.22064781188964844,9.079343795776367
1503530553302,0.158233642578125,-0.2010498046875,9.149245262145996
1503530553352,0.1881205439567566,-0.21771240234375,9.123855590820312
1503530553402,0.162994384765625,-0.22776269912719727,9.109573
1503530553452,0.15156865119934082,-0.20565176010131836,9.108144998550415
1503530553502,0.16013813018798828,-0.21469688415527344,9.081485748291016
1503530553552,0.16109085083007812,-0.2146972417831421,9.091482639312744
1503530553602,0.17299175262451172,-0.23469161987304688,9.152420043945312
1503530553652,0.197509765625,-0.24278545379638672,9.094576954841614
1503530553702,0.172515869140625,-0.18756103515625,9.188126564025879
1503530553752,0.174896240234375,-0.22707557678222656,9.113858222961426
1503530553802,0.15323448181152344,-0.24968868494033813,9.149324417114258
1503530553852,0.18965435028076172,-0.22659921646118164,9.099100112915039
1503530553902,0.17251587,-0.22088623046875,9.101717472076416
1503530553952,0.18775033950805664,-0.19136953353881836,9.034353256225586
1503530554002,0.1735737919807434,-0.231201171875,9.117242813110352
1503530554052,0.16775513,-0.21136474609375,9.075057983398438
1503530554102,0.20002174377441406,-0.23490428924560547,9.097143173217773
1503530554152,0.17870473861694336,-0.226837158203125,9.097909927368164
1503530554202,0.16013717651367188,-0.22374272346496582,9.112906455993652
1503530554252,0.16823124885559082,-0.24992656707763672,9.176699876785278
1503530554302,0.17822861671447754,-0.23564434051513672,9.115285873413086
1503530554352,0.174896240234375,-0.208984375,9.197647094726562
1503530554402,0.17084980010986328,-0.22588491439819336,9.13480520248413
1503530554452,0.19069290161132812,-0.21915507316589355,9.089881896972656
1503530554502,0.162994384765625,-0.19232177734375,9.158609390258789
1503530554552,0.17275333404541016,-0.22064876556396484,9.081962585449219
1503530554602,0.199493408203125,-0.212158203125,9.126235961914062
1503530554652,0.1926412582397461,-0.21049880981445312,9.16367244720459
1503530554702,0.19989013671875,-0.22564697265625,9.078628540039062
1503530554752,0.17584842443466187,-0.23564457893371582,9.106717109680176
1503530554802,0.17299199104309082,-0.23088383674621582,9.119571208953857
1503530554852,0.19179677963256836,-0.2127929925918579,9.162893772125244
1503530554902,0.15490150451660156,-0.24421405792236328,9.098147571086884
1503530554952,0.17418217658996582,-0.23231220245361328,9.107907176017761
1503530555002,0.220123291015625,-0.25897216796875,9.152420043945312
1503530555052,0.167755126953125,-0.2518310546875,9.164321899414062
1503530555102,0.16370868682861328,-0.22231292724609375,9.144802927970886
1503530555152,0.18727397918701172,-0.20850831270217896,9.06386947631836
1503530555202,0.17180204391479492,-0.19017887115478516,9.1100492477417
1503530555252,0.144744873046875,-0.18994140625,9.149245738983154
1503530555302,0.18156051635742188,-0.21469783782958984,9.151944160461426
1503530555352,0.182037353515625,-0.198272705078125,9.121475219726562
1503530555402,0.17595386505126953,-0.22749829292297363,9.12676477432251
1503530555452,0.175689697265625,-0.2105712890625,9.073074340820312
1503530555502,0.1689453125,-0.23778724670410156,9.106002807617188
1503530555552,0.17299222946166992,-0.2042236328125,9.101480484008789
1503530555602,0.15680527687072754,-0.22564697265625,9.140995025634766
1503530555652,0.162994384765625,-0.22088623046875,9.150040626525879
1503530555702,0.160614013671875,-0.22564697265625,9.100051879882812
1503530555752,0.1927490234375,-0.248260498046875,9.131949424743652
1503530555802,0.17489624,-0.23231202363967896,9.128141403198242
1503530555852,0.159820556640625,-0.19364452362060547,9.10666275024414
1503530555902,0.19512939453125,-0.23350214958190918,9.0910062789917
1503530555952,0.15442466735839844,-0.24135732650756836,9.108145236968994
1503530556002,0.1547953486442566,-0.21004247665405273,9.099258422851562
1503530556052,0.19155884,-0.22670507431030273,9.104283332824707
1503530556102,0.165374755859375,-0.22421836853027344,9.129568099975586
1503530556152,0.16204214096069336,-0.21422100067138672,9.0957670211792
1503530556202,0.167755126953125,-0.25087928771972656,9.101479530334473
1503530556252,0.18636512756347656,-0.25615882873535156,9.147443056106567
1503530556302,0.1545543670654297,-0.22110259532928467,9.135971069335938
1503530556352,0.139190673828125,-0.22088623046875,9.147659063339233
1503530556402,0.18441772,-0.20660400390625,9.142898559570312
1503530556452,0.18013310432434082,-0.2246948480606079,9.140042304992676
1503530556502,0.203460693359375,-0.1962890625,9.109044075012207
1503530556552,0.18037128448486328,-0.22636127471923828,9.100289821624756
1503530556602,0.17394447326660156,-0.2199341058731079,9.10766887664795
1503530556652,0.178466796875,-0.226837158203125,9.135757446289062
1503530556702,0.18097877502441406,-0.21321582794189453,9.116186141967773
1503530556752,0.164581298828125,-0.22247314453125,9.032608032226562
1503530556802,0.1603759527206421,-0.23945331573486328,9.139328002929688
1503530556852,0.18060922622680664,-0.24992656707763672,9.154799938201904
1503530556902,0.17251587,-0.20898438,9.123854637145996
1503530556952,0.18203735,-0.23040771484375,9.111953735351562
1503530557002,0.191558837890625,-0.2042236328125,9.111953735351562
1503530557052,0.15847164392471313,-0.226837158203125,9.077200889587402
1503530557102,0.1491870880126953,-0.17661094665527344,9.180030822753906
1503530557152,0.17989444732666016,-0.22469472885131836,9.100765705108643
1503530557202,0.177276611328125,-0.20343017578125,9.100051403045654
1503530557252,0.16823101043701172,-0.22088623046875,9.12195110321045
1503530557302,0.16775513,-0.2327880859375,9.11671495437622
1503530557352,0.17108774185180664,-0.21564960479736328,9.085769653320312
1503530557402,0.18965458869934082,-0.21564960479736328,9.123856
1503530557452,0.16466069221496582,-0.19779658317565918,9.09195852279663
1503530557502,0.16108989715576172,-0.24373817443847656,9.103860855102539
1503530557552,0.177276611328125,-0.22517108917236328,9.11100172996521
1503530557602,0.184417724609375,-0.23516845703125,9.066726684570312
1503530557652,0.167755126953125,-0.208984375,9.188125610351562
1503530557702,0.210601806640625,-0.20850801467895508,9.117190599441528
1503530557752,0.16870737075805664,-0.226837158203125,9.125997543334961
1503530557802,0.14609336853027344,-0.23231220245361328,9.128616333007812
1503530557852,0.19446754455566406,-0.21771240234375,9.12173843383789
1503530557902,0.15490102767944336,-0.22088623,9.120999336242676
1503530557952,0.174896240234375,-0.21612548828125,9.103622436523438
1503530558002,0.150299072265625,-0.21612548828125,9.136021614074707
1503530558052,0.19346308708190918,-0.20469951629638672,9.115286827087402
1503530558102,0.22559738159179688,-0.24516582489013672,9.14504098892212
1503530558152,0.16870689392089844,-0.25897216796875,9.049588203430176
1503530558202,0.14299869537353516,-0.210174560546875,9.081484317779541
1503530558252,0.17084956169128418,-0.20636606216430664,9.128139972686768
1503530558302,0.134429931640625,-0.22088623046875,9.102432
1503530558352,0.17989492416381836,-0.17327880859375,9.200979232788086
1503530558402,0.17703866958618164,-0.22897958755493164,9.092434406280518
1503530558452,0.19108277559280396,-0.26087647676467896,9.078152418136597
1503530558502,0.1591857671737671,-0.19898700714111328,9.146944999694824
1503530558552,0.15632963180541992,-0.24326181411743164,9.11433458328247
1503530558602,0.167755126953125,-0.20184326171875,9.121475219726562
1503530558652,0.1641845703125,-0.20184326171875,9.103622436523438
1503530558702,0.15870952606201172,-0.21707767248153687,9.104336738586426
1503530558752,0.173309326171875,-0.23675537109375,9.086563110351562
1503530558802,0.1703735589981079,-0.22112464904785156,9.178365707397461
1503530558852,0.16204166412353516,-0.24421405792236328,9.172414779663086
1503530558902,0.19370126724243164,-0.22564697,9.110526084899902
1503530558952,0.179656982421875,-0.25421142578125,9.116714477539062
1503530559002,0.18846416473388672,-0.226837158203125,9.048635482788086
1503530559052,0.18060922622680664,-0.24207210540771484,9.101479768753052
1503530559102,0.17299175262451172,-0.20946073532104492,9.131948947906494
1503530559152,0.1689453125,-0.22112417221069336,9.072441101074219
1503530559202,0.170135498046875,-0.22088623,9.17527174949646
1503530559252,0.182830810546875,-0.24997973442077637,9.131261348724365
1503530559302,0.20941162109375,-0.23040771484375,9.107192993164062
1503530559352,0.1948913335800171,-0.2565918,9.120046615600586
1503530559402,0.15780091285705566,-0.24295854568481445,9.168650150299072
1503530559452,0.15156841278076172,-0.21160221099853516,9.117904663085938
1503530559502,0.19679546356201172,-0.22802734375,9.131948471069336
1503530559552,0.16751712560653687,-0.2211242914199829,9.068631172180176
1503530559602,0.201080322265625,-0.25897216796875,9.159561157226562
1503530559652,0.174896240234375,-0.22802734375,9.102432250976562
1503530559702,0.22297954559326172,-0.23826313018798828,9.071010947227478
1503530559752,0.13786816596984863,-0.21321606636047363,9.147130012512207
1503530559802,0.15704345703125,-0.23040771484375,9.167415618896484
1503530559852,0.147125244140625,-0.24945068359375,9.089736938476562
1503530559902,0.15691184997558594,-0.23305261135101318,9.048476934432983
1503530559952,0.155853271484375,-0.222076416015625,9.079818725585938
1503530560002,0.19420373439788818,-0.2100422978401184,9.117244720458984
1503530560052,0.162994384765625,-0.23516845703125,9.07624864578247
1503530560102,0.18547630310058594,-0.24310302734375,9.147130966186523
1503530560152,0.179656982421875,-0.20184326171875,9.12290334701538
1503530560202,0.15085506439208984,-0.22636127471923828,9.11266803741455
1503530560252,0.136810302734375,-0.23516845703125,9.159561157226562
1503530560302,0.16180419921875,-0.229217529296875,9.169082641601562
1503530560352,0.19155884,-0.20898438,9.104019165039062
1503530560402,0.16965937614440918,-0.18756103515625,9.103384017944336
1503530560452,0.17780542373657227,-0.22987842559814453,9.070693969726562
1503530560502,0.18013310432434082,-0.22279071807861328,9.09814739227295
1503530560552,0.16204237937927246,-0.20469951629638672,9.126235961914062
1503530560602,0.15704345703125,-0.218505859375,9.116714477539062
1503530560652,0.18727397918701172,-0.23897743225097656,9.08386516571045
1503530560702,0.1549011468887329,-0.21303081512451172,9.050540447235107
1503530560752,0.19441604614257812,-0.23564529418945312,9.087197303771973
1503530560802,0.18489378690719604,-0.22564697265625,9.156704425811768
1503530560852,0.19179677963256836,-0.24564194679260254,9.097195148468018
1503530560902,0.189178466796875,-0.21136474609375,9.102432250976562
1503530560952,0.189178466796875,-0.21136474609375,9.076248168945312
1503530561002,0.1675170660018921,-0.23374032974243164,9.08981704711914
1503530561052,0.16013813018798828,-0.2342163324356079,9.125760078430176
1503530561102,0.16013789176940918,-0.22826576232910156,9.07053518295288
1503530561152,0.204254150390625,-0.23199462890625,9.071487426757812
1503530561202,0.19965171813964844,-0.24278593063354492,9.107192993164062
1503530561252,0.17727661,-0.257781982421875,9.125045418739319
1503530561302,0.16632652282714844,-0.2232666015625,9.101957321166992
1503530561352,0.167755126953125,-0.2169189453125,9.098464965820312
1503530561402,0.19512939453125,-0.210174560546875,9.083627700805664
1503530561452,0.1858459711074829,-0.18946528434753418,9.09671938419342
1503530561502,0.16846919059753418,-0.22850418090820312,9.088150024414062
1503530561552,0.177276611328125,-0.23040771484375,9.152420043945312
1503530561602,0.160614013671875,-0.2518310546875,9.10719347000122
1503530561652,0.18417930603027344,-0.22802734,9.048637390136719
1503530561702,0.15537643432617188,-0.24326133728027344,9.088626027107239
1503530561752,0.20250844955444336,-0.20136737823486328,9.120046615600586
1503530561802,0.17918109893798828,-0.23850107192993164,9.067916870117188
1503530561852,0.17775249481201172,-0.24278569221496582,9.081960678100586
1503530561902,0.189178466796875,-0.21136474609375,9.123855590820312
1503530561952,0.177276611328125,-0.231597900390625,9.126235961914062
1503530562002,0.165374755859375,-0.23992919921875,9.153372287750244
1503530562052,0.22036123275756836,-0.2301696538925171,9.087673902511597
1503530562102,0.1791279911994934,-0.21956443786621094,9.091854095458984
1503530562152,0.13310813903808594,-0.21533203125,9.148981094360352
1503530562202,0.170135498046875,-0.25087833404541016,9.111239433288574
1503530562252,0.196319580078125,-0.1947021484375,9.111953735351562
1503530562302,0.189178466796875,-0.2327880859375,9.116714477539062
1503530562352,0.18584585189819336,-0.21683979034423828,9.105525970458984
1503530562402,0.18108558654785156,-0.20089149475097656,9.12671184539795
1503530562452,0.19036865234375,-0.21779155731201172,9.15551471710205
1503530562502,0.189178466796875,-0.25992488861083984,9.1052885055542
1503530562552,0.17918109893798828,-0.23516845703125,9.073867797851562
1503530562602,0.172515869140625,-0.231597900390625,9.117905139923096
1503530562652,0.18156147003173828,-0.21326911449432373,9.0957670211792
1503530562702,0.189178466796875,-0.22993135452270508,9.118142127990723
1503530562752,0.20060443878173828,-0.21874380111694336,9.115524768829346
1503530562802,0.18108558654785156,-0.22802734375,9.119571208953857
1503530562852,0.16823112964630127,-0.22778934240341187,9.104576110839844
1503530562902,0.170135498046875,-0.17327880859375,9.140517711639404
1503530562952,0.14585494995117188,-0.20279526710510254,9.1388521194458
1503530563002,0.182830810546875,-0.20052075386047363,9.174107551574707
1503530563052,0.15490150451660156,-0.23992919921875,9.149087905883789
1503530563102,0.15704345703125,-0.19898676872253418,9.111715316772461
1503530563152,0.155059814453125,-0.2296142578125,9.136550903320312
1503530563202,0.16823124885559082,-0.21326911449432373,9.094815254211426
1503530563252,0.174896240234375,-0.217315673828125,9.102432250976562
1503530563302,0.1928572654724121,-0.2314896583557129,9.059152603149414
1503530563352,0.186004638671875,-0.22564697265625,9.059584617614746
1503530563402,0.17561054229736328,-0.23659658432006836,9.179555892944336
1503530563452,0.15775775909423828,-0.2608764171600342,9.135757684707642
1503530563502,0.17208290100097656,-0.2552938461303711,9.171246528625488
1503530563552,0.141571044921875,-0.23516845703125,9.128616333007812
1503530563602,0.215362548828125,-0.256591796875,9.081008911132812
1503530563652,0.17561054229736328,-0.208984375,9.145278999999999
1503530563702,0.16156673431396484,-0.20184326171875,9.101003646850586
1503530563752,0.16823101043701172,-0.24468994,9.1290922164917
1503530563802,0.16753864288330078,-0.240578293800354,9.098537147045135
1503530563852,0.18060874938964844,-0.22136211395263672,9.112430095672607
1503530563902,0.158233642578125,-0.226837158203125,9.076248168945312
1503530563952,0.18870210647583008,-0.24135780334472656,9.08005666732788
1503530564002,0.19679558277130127,-0.22040939331054688,9.122426986694336
1503530564052,0.2044128179550171,-0.22802734,9.106002807617188
1503530564102,0.17822885513305664,-0.22897911071777344,9.133852481842041
1503530564152,0.1941772699356079,-0.23540639877319336,9.080055236816406
1503530564202,0.165374755859375,-0.23516845703125,9.092910766601562
1503530564252,0.165374755859375,-0.2042236328125,9.104812860488892
1503530564302,0.1889404058456421,-0.208984375,9.109573364257812
1503530564352,0.18108510971069336,-0.2423095703125,9.12575912475586
1503530564402,0.15609169006347656,-0.21398305892944336,9.120523452758789
1503530564452,0.19084501266479492,-0.21541118621826172,9.079582214355469
1503530564502,0.17870521545410156,-0.21184086799621582,9.126235723495483
1503530564552,0.148712158203125,-0.2423095703125,9.094100952148438
1503530564602,0.17132568359375,-0.256591796875,9.128616333007812
1503530564652,0.17299175262451172,-0.2042236328125,9.11719036102295
1503530564702,0.20393681526184082,-0.20946049690246582,9.058633804321289
1503530564752,0.20036649703979492,-0.23421669006347656,9.14099407196045
1503530564802,0.17441940307617188,-0.21326899528503418,9.14718246459961
1503530564852,0.1841796636581421,-0.193511962890625,9.123379707336426
1503530564902,0.17965698,-0.18756103515625,9.083388805389404
1503530564952,0.17513370513916016,-0.200653076171875,9.137423515319824
1503530565002,0.17304480075836182,-0.19099998474121094,9.10957384109497
1503530565052,0.16585159301757812,-0.19422602653503418,9.090054512023926
1503530565102,0.16561317443847656,-0.229217529296875,9.108144760131836
1503530565152,0.17346811294555664,-0.24088144302368164,9.140995025634766
1503530565202,0.178070068359375,-0.2505086064338684,9.070958375930786
1503530565252,0.1641845703125,-0.2232666015625,9.076248168945312
1503530565302,0.18727397918701172,-0.20469951629638672,9.14956283569336
1503530565352,0.17608642578125,-0.2063659429550171,9.096004962921143
1503530565402,0.19060659408569336,-0.23040771484375,9.111239671707153
1503530565452,0.15966176986694336,-0.2265990972518921,9.139566421508789
1503530565502,0.154266357421875,-0.25421142578125,9.17172622680664
1503530565552,0.172515869140625,-0.2042236328125,9.138137936592102
1503530565602,0.18465566635131836,-0.22493267059326172,9.114095985889435
1503530565652,0.1603495478630066,-0.20713329315185547,9.052709579467773
1503530565702,0.184417724609375,-0.21326899528503418,9.136233806610107
1503530565752,0.19346308708190918,-0.22802734375,9.027688980102539
1503530565802,0.1999979019165039,-0.23819804191589355,9.153069496154785
1503530565852,0.17662739753723145,-0.20833516120910645,9.144412994384766
1503530565902,0.18084716796875,-0.241119384765625,9.085769891738892
1503530565952,0.15252065658569336,-0.23612046241760254,9.146707534790039
1503530566002,0.19399023056030273,-0.1967008113861084,9.113165378570557
1503530566052,0.18454164266586304,-0.22346961498260498,9.102317094802856
1503530566102,0.1880176067352295,-0.23475342988967896,9.125670194625854
1503530566152,0.17889994382858276,-0.22520816326141357,9.097890943288803
1503530566202,0.1817041039466858,-0.23467516899108887,9.107926845550537
1503530566252,0.1761910319328308,-0.2278921902179718,9.120592474937439
1503530566302,0.18249857425689697,-0.22215914726257324,9.115681529045105
1503530566352,0.17974913120269775,-0.22059452533721924,9.125929951667786
1503530566402,0.19140028953552246,-0.23750579357147217,9.112986326217651
1503530566452,0.1800643801689148,-0.2275872826576233,9.119544252753258
1503530566502,0.18833541870117188,-0.2279815673828125,9.127166152000427
1503530566552,0.18915221095085144,-0.2176748514175415,9.139533519744873
1503530566602,0.18357384204864502,-0.2140275537967682,9.131201565265656
1503530566652,0.170989990234375,-0.2086944580078125,9.131475627422333
1503530566702,0.1765594482421875,-0.20804095268249512,9.110996007919312
1503530566752,0.1753736138343811,-0.2292524054646492,9.100191116333008
1503530566802,0.1750062108039856,-0.22641116380691528,9.123096346855164
1503530566852,0.17776113748550415,-0.2208099365234375,9.13720190525055
1503530566902,0.17323486134409904,-0.22237610816955566,9.133454501628876
1503530566952,0.17227935791015625,-0.22660065069794655,9.1283800303936
1503530567002,0.1690942347049713,-0.22315248847007751,9.11884593963623
1503530567052,0.18246781826019287,-0.21586298942565918,9.1097192466259
1503530567102,0.18425416946411133,-0.20738157629966736,9.120613753795624
1503530567152,0.17895203828811646,-0.20641663670539856,9.117535710334778
1503530567202,0.17434906959533691,-0.22238373756408691,9.116914689540863
1503530567252,0.17724984884262085,-0.2192600965499878,9.117074966430664
1503530567302,0.1828831285238266,-0.21168673038482666,9.11193086206913
1503530567352,0.18192382901906967,-0.22105801105499268,9.126645684242249
1503530567402,0.17674723267555237,-0.21648579835891724,9.098282098770142
1503530567452,0.16865882277488708,-0.2068459689617157,9.111693620681763
1503530567502,0.17257875204086304,-0.22618436813354492,9.13276395201683
1503530567552,0.19430112838745117,-0.22138118743896484,9.105035781860352
1503530567602,0.18514740467071533,-0.22908329963684082,9.090163186192513
1503530567652,0.1752384752035141,-0.2268022894859314,9.105562567710876
1503530567702,0.18436580896377563,-0.2335498332977295,9.12498390674591
1503530567752,0.18298587203025818,-0.22600197792053223,9.11815631389618
1503530567802,0.1803799383342266,-0.22571653127670288,9.126191675662994
1503530567852,0.1937950849533081,-0.22671259939670563,9.132678300142288
1503530567902,0.17532944679260254,-0.2225341796875,9.117496848106384
1503530567952,0.17136088013648987,-0.21036827564239502,9.12768018245697
1503530568002,0.18214476108551025,-0.2083347849547863,9.099220991134644
1503530568052,0.17765092849731445,-0.20612382888793945,9.129003047943115
1503530568102,0.16633301973342896,-0.2112463414669037,9.11104428768158
1503530568152,0.1787109375,-0.2090541273355484,9.121745824813843
1503530568202,0.16855794191360474,-0.20224466919898987,9.13309919834137
1503530568252,0.17705798149108887,-0.21590781211853027,9.124924063682556
1503530568302,0.1821603626012802,-0.23286223411560059,9.15402615070343
1503530568352,0.16761595010757446,-0.2232726812362671,9.129993081092834
1503530568402,0.19224822521209717,-0.21918345987796783,9.109792947769165
1503530568452,0.17750298976898193,-0.21761773526668549,9.127799987792969
1503530568502,0.18411314487457275,-0.2116125524044037,9.108958005905151
1503530568552,0.18349098786711693,-0.22815066576004028,9.116539508104324
1503530568602,0.172515869140625,-0.210418701171875,9.137664914131165
1503530568652,0.16993433237075806,-0.2119642198085785,9.134989261627197
1503530568702,0.18224120140075684,-0.2180517613887787,9.09825910627842
1503530568752,0.16501164436340332,-0.21930241584777832,9.101289480924606
1503530568802,0.17955541610717773,-0.23711848258972168,9.109247088432312
1503530568852,0.19166749715805054,-0.22357177734375,9.127302885055542
1503530568902,0.181998735293746,-0.22758576273918152,9.138094663619995
1503530568952,0.18107855319976807,-0.23005521297454834,9.12273770570755
1503530569002,0.17663146555423737,-0.20287230610847473,9.128937244415283
1503530569052,0.17536926,-0.212982177734375,9.095767736434937
1503530569102,0.176116943359375,-0.2267979383468628,9.117123872041702
1503530569152,0.1764136552810669,-0.2020532488822937,9.12249924056232
1503530569202,0.15854644775390625,-0.21469879150390625,9.116562128067017
1503530569252,0.17766112089157104,-0.20888367295265198,9.089868426322937
1503530569302,0.17283102869987488,-0.2099437713623047,9.106549084186554
1503530569352,0.17828400433063507,-0.22933897376060486,9.090773463249207
1503530569402,0.17849701642990112,-0.22424942255020142,9.091782093048096
1503530569452,0.1729699671268463,-0.22278475761413574,9.122984766960144
1503530569502,0.17017725110054016,-0.23062974959611893,9.134980320930481
1503530569552,0.1664603091776371,-0.2243586778640747,9.12215542793274
1503530569602,0.17015820741653442,-0.21814000606536865,9.10495662689209
1503530569652,0.17759826220571995,-0.22482597827911377,9.097474813461304
1503530569702,0.17587652802467346,-0.2107020616531372,9.108598470687866
1503530569752,0.1728247795253992,-0.22616764903068542,9.094653896987438
1503530569802,0.17776238918304443,-0.22263506054878235,9.09276981651783
1503530569852,0.1797415018081665,-0.22655150294303894,9.092770755290985
1503530569902,0.1737661361694336,-0.22415196895599365,9.106611847877502
1503530569952,0.18270344845950603,-0.21881134808063507,9.12186112254858
1503530570002,0.1721736192703247,-0.2242235541343689,9.123853281140327
1503530570052,0.1643853783607483,-0.22373467683792114,9.119987785816193
1503530570102,0.1742706298828125,-0.2115280032157898,9.116626888513565
1503530570152,0.17677462846040726,-0.20456244051456451,9.118989497423172
1503530570202,0.1819401979446411,-0.20652616024017334,9.124875724315643
1503530570252,0.1827545166015625,-0.2232666015625,9.136947482824326
1503530570302,0.17166543006896973,-0.23004215955734253,9.145134806632996
1503530570352,0.1704559326171875,-0.22396165505051613,9.12505841255188
1503530570402,0.16611605882644653,-0.22940027713775635,9.109549641609192
1503530570452,0.1689453125,-0.22217178344726562,9.118291676044464
1503530570502,0.17478972673416138,-0.22384393215179443,9.111612379550934
1503530570552,0.17496661841869354,-0.2202826738357544,9.109039306640625
1503530570602,0.18302881717681885,-0.2248479127883911,9.118072748184204
1503530570652,0.18639129400253296,-0.23573973774909973,9.134937524795532
1503530570702,0.17620813846588135,-0.2282138466835022,9.117596864700317
1503530570752,0.1780722737312317,-0.22123906016349792,9.10756853222847
1503530570802,0.1826617419719696,-0.2201010175049305,9.10690438747406
1503530570852,0.1887587010860443,-0.22827428579330444,9.123885869979858
1503530570902,0.18065345287322998,-0.21810638904571533,9.128933608531952
1503530570952,0.1724417507648468,-0.2172764241695404,9.090800523757935
1503530571002,0.1833234429359436,-0.22225454449653625,9.10003674030304
1503530571052,0.19386228919029236,-0.22075481712818146,9.103591978549957
1503530571102,0.17558717727661133,-0.21451294422149658,9.130173921585083
1503530571152,0.1643851101398468,-0.22165042161941528,9.1102933883667
1503530571202,0.16819548606872559,-0.23349612951278687,9.113837242126465
1503530571252,0.17534619569778442,-0.22172296047210693,9.098618388175964
1503530571302,0.1810760498046875,-0.23629355430603027,9.088027596473694
1503530571352,0.17008692026138306,-0.21809732913970947,9.11420452594757
1503530571402,0.18014955520629883,-0.2305358648300171,9.128373742103577
1503530571452,0.16089081764221191,-0.2272077202796936,9.075773000717163
1503530571502,0.1723250150680542,-0.22528979182243347,9.122712135314941
1503530571552,0.18468588590621948,-0.21833676099777222,9.119836509227753
1503530571602,0.18847250938415527,-0.21624257415533066,9.13260692358017
1503530571652,0.16592156887054443,-0.22575563192367554,9.122029840946198
1503530571702,0.1813734769821167,-0.20603728294372559,9.10982871055603
1503530571752,0.18698546290397644,-0.22170782089233398,9.101942867040634
1503530571802,0.18821239098906517,-0.2148599624633789,9.123389959335327
1503530571852,0.17096096277236938,-0.22029876708984375,9.097267508506775
1503530571902,0.1744232326745987,-0.21612548828125,9.126708984375
1503530571952,0.1594422459602356,-0.20394492149353027,9.109599113464355
1503530572002,0.1721400022506714,-0.21356356143951416,9.088868737220764
1503530572052,0.17470884323120117,-0.22075560688972473,9.10641634464264
1503530572102,0.17921292036771774,-0.22708219289779663,9.116831287741661
1503530572152,0.17893308401107788,-0.2412274181842804,9.116793274879456
1503530572202,0.17171984910964966,-0.23271429538726807,9.098819494247437
1503530572252,0.1843438744544983,-0.2172113060951233,9.12871766090393
1503530572302,0.18458998203277588,-0.22575688362121582,9.103700041770935
1503530572352,0.16836762428283691,-0.2294573187828064,9.119025155901909
1503530572402,0.18426698446273804,-0.2222522497177124,9.120870471000671
1503530572452,0.17237573862075806,-0.2027263641357422,9.142606735229492
1503530572502,0.16750694811344147,-0.21840369701385498,9.119337797164917
1503530572552,0.17089538276195526,-0.2163146734237671,9.128805816173553
1503530572602,0.17495763301849365,-0.22970396280288696,9.118294090032578
1503530572652,0.18525636196136475,-0.23296451568603516,9.103571653366089
1503530572702,0.17767882347106934,-0.20814275741577148,9.083788394927979
1503530572752,0.16712361574172974,-0.22927606105804443,9.111163675785065
1503530572802,0.17302189767360687,-0.23199057579040527,9.118790328502655
1503530572852,0.1753736138343811,-0.2175532728433609,9.108821138739586
1503530572902,0.17702095210552216,-0.21935630589723587,9.10896784067154
1503530572952,0.1797882318496704,-0.2168121337890625,9.111973404884338
1503530573002,0.18016016483306885,-0.21577268838882446,9.111146092414856
1503530573052,0.16674286127090454,-0.22140687704086304,9.127494618296623
1503530573102,0.17498779296875,-0.2231501340866089,9.132181167602539
1503530573152,0.17279177904129028,-0.22665154933929443,9.1379514336586
1503530573202,0.17766523361206055,-0.2373276948928833,9.123078048229218
1503530573252,0.19039535522460938,-0.23062632977962494,9.116663366556168
1503530573302,0.18511509895324707,-0.2311166375875473,9.118444994091988
1503530573352,0.162309929728508,-0.21415925025939941,9.123584926128387
1503530573402,0.1712092161178589,-0.19888055324554443,9.136583149433136
1503530573452,0.1758827567100525,-0.2145594358444214,9.127110362052917
1503530573502,0.17948198318481445,-0.22003954648971558,9.131542444229126
1503530573552,0.1828840970993042,-0.212511345744133,9.137856245040894
1503530573602,0.17774963,-0.20918090641498566,9.129033923149109
1503530573652,0.17294842004776,-0.21814274787902832,9.11645519733429
1503530573702,0.16870117,-0.22348052263259888,9.111250281333923
1503530573752,0.1660778820514679,-0.21857187151908875,9.122191399335861
1503530573802,0.1729212999343872,-0.2282322645187378,9.12323871999979
1503530573852,0.17007535696029663,-0.23237639665603638,9.114257216453552
1503530573902,0.17192202806472778,-0.23470261693000793,9.122902035713196
1503530573952,0.18347316980361938,-0.22385954856872559,9.11335289478302
1503530574002,0.16648709774017334,-0.2145712710916996,9.119731545448303
1503530574052,0.16630375385284424,-0.233720064163208,9.112374901771545
1503530574102,0.17112544178962708,-0.22759008407592773,9.100568816065788
1503530574152,0.18103867769241333,-0.2220306396484375,9.104706794023514
1503530574202,0.1734398603439331,-0.21152138710021973,9.118098676204681
1503530574252,0.1694553941488266,-0.221771240234375,9.114746451377869
1503530574302,0.1690817028284073,-0.2133415937423706,9.111481
1503530574352,0.16800109669566154,-0.23057615756988525,9.109369039535522
1503530574402,0.17709940671920776,-0.2370661497116089,9.116531431674957
1503530574452,0.1849343478679657,-0.21850967407226562,9.06740665435791
1503530574502,0.17889833450317383,-0.22812557220458984,9.107025861740112
1503530574552,0.18096923828125,-0.22511321306228638,9.117879092693329
1503530574602,0.18126507475972176,-0.2275390625,9.099998116493225
1503530574652,0.18928682804107666,-0.2257727086544037,9.112640261650085
1503530574702,0.19307754933834076,-0.22237785160541534,9.137754678726196
1503530574752,0.1734684705734253,-0.2259129285812378,9.126846671104431
1503530574802,0.18266886472702026,-0.22493261098861694,9.104282975196838
1503530574852,0.18441772,-0.21785005927085876,9.107035398483276
1503530574902,0.1749969720840454,-0.22135621309280396,9.090101599693298
1503530574952,0.183563232421875,-0.2283904254436493,9.103452742099762
1503530575002,0.1736885905265808,-0.21825861930847168,9.075762629508972
1503530575052,0.1698620617389679,-0.22874754667282104,9.106082797050476
1503530575102,0.18107855319976807,-0.23265232145786285,9.100835800170898
1503530575152,0.18948644399642944,-0.22346091270446777,9.097729742527008
1503530575202,0.16026759147644043,-0.23400330543518066,9.082269370555878
1503530575252,0.16204833984375,-0.227081298828125,9.097671508789062
1503530575302,0.17236328125,-0.2269841432571411,9.105528891086578
1503530575352,0.18730652332305908,-0.22279661893844604,9.116464257240295
1503530575402,0.1766871213912964,-0.23367810249328613,9.098328709602356
1503530575452,0.174211785197258,-0.22071154415607452,9.079625755548477
1503530575502,0.17725110054016113,-0.21741127967834473,9.077157020568848
1503530575552,0.1667100489139557,-0.20964020490646362,9.123830378055573
1503530575602,0.17002197727560997,-0.20461857318878174,9.11710923910141
1503530575652,0.16819730401039124,-0.21908101439476013,9.129300057888031
1503530575702,0.16407990455627441,-0.228363037109375,9.113523006439209
1503530575752,0.17845821380615234,-0.23563110828399658,9.078723430633545
1503530575802,0.161376953125,-0.21772143244743347,9.112828135490417
1503530575852,0.17030926421284676,-0.21770057082176208,9.096672058105469
1503530575902,0.17312437295913696,-0.22712987661361694,9.118731617927551
1503530575952,0.18276643753051758,-0.23503175377845764,9.127419710159302
1503530576002,0.18923981487751007,-0.22871150076389313,9.089678764343262
1503530576052,0.18607103824615479,-0.2269383668899536,9.118284702301025
1503530576102,0.16745084524154663,-0.2240288257598877,9.135924339294434
1503530576152,0.15897583216428757,-0.21471810340881348,9.111743927001953
1503530576202,0.1618887484073639,-0.22612828016281128,9.133103609085083
1503530576252,0.16937407851219177,-0.21489733457565308,9.09945372492075
1503530576302,0.17642584443092346,-0.21197140216827393,9.104558229446411
1503530576352,0.18172843754291534,-0.22446364164352417,9.129045009613037
1503530576402,0.1822453737258911,-0.2293645143508911,9.132552146911621
1503530576452,0.18109381198883057,-0.22959434986114502,9.108748078346252
1503530576502,0.17320069670677185,-0.23802185,9.110785365104675
1503530576552,0.17224806547164917,-0.2326672077178955,9.09580147266388
1503530576602,0.17924529314041138,-0.2286844253540039,9.111150741577148
1503530576652,0.17673605680465698,-0.2261897325515747,9.107118844985962
1503530576702,0.1740393042564392,-0.21547362208366394,9.103473663330078
1503530576752,0.1792559027671814,-0.2196406126022339,9.108345985412598
1503530576802,0.17428091168403625,-0.21475034952163696,9.081224203109741
1503530576852,0.17788195610046387,-0.21894621849060059,9.073395
1503530576902,0.17465972900390625,-0.2239837646484375,9.091484069824219
1503530576952,0.1733759641647339,-0.20910710096359253,9.103017926216125
1503530577002,0.17933997511863708,-0.21160888671875,9.105307638645172
1503530577052,0.18259796500205994,-0.22926199436187744,9.121386706829071
1503530577102,0.17908954620361328,-0.23079490661621094,9.116033434867859
1503530577152,0.17070066928863525,-0.2290414273738861,9.105140939354897
1503530577202,0.1692701056599617,-0.22704672813415527,9.100393325090408
1503530577252,0.17651981115341187,-0.21973878145217896,9.101388782262802
1503530577302,0.1805027537047863,-0.22057485580444336,9.099784225225449
1503530577352,0.1671847105026245,-0.2221854105591774,9.12551212310791
1503530577402,0.1879584789276123,-0.22618693113327026,9.12018895149231
1503530577452,0.18149983882904053,-0.2188817262649536,9.083295822143555
1503530577502,0.17835527658462524,-0.22610819339752197,9.086536049842834
1503530577552,0.17489928007125854,-0.2180236577987671,9.110377550125122
1503530577602,0.1751054972410202,-0.2143598198890686,9.116646572947502
1503530577652,0.18043944239616394,-0.21346557140350342,9.121383249759674
1503530577702,0.18553507328033447,-0.21489544212818146,9.107643008232117
1503530577752,0.17764067649841309,-0.2230483889579773,9.116400837898254
1503530577802,0.16450786590576172,-0.2414315938949585,9.100926876068115
1503530577852,0.16876184940338135,-0.21921157836914062,9.123990058898926
1503530577902,0.17137756198644638,-0.22450560331344604,9.099474668502808
1503530577952,0.1731143742799759,-0.22094008326530457,9.119079113006592
1503530578002,0.16605466604232788,-0.22804778814315796,9.126453578472137
1503530578052,0.18194580078125,-0.22833874821662903,9.11276650428772
1503530578102,0.1891155242919922,-0.21261978149414062,9.0917147397995
1503530578152,0.18253478407859802,-0.22549808025360107,9.113400220870972
1503530578202,0.17428869009017944,-0.22626636177301407,9.116289315745234
1503530578252,0.1721847504377365,-0.21498262882232666,9.106807172298431
1503530578302,0.18602800369262695,-0.22773027420043945,9.093959867954254
1503530578352,0.19129632413387299,-0.23120801150798798,9.10096099972725
1503530578402,0.18126040697097778,-0.2215142846107483,9.122069239616394
1503530578452,0.1712799072265625,-0.2134307324886322,9.104736804962158
1503530578502,0.189178466796875,-0.2232666015625,9.123855948448181
1503530578552,0.1844176948070526,-0.2223205603659153,9.118622034788132
1503530578602,0.1750127077102661,-0.2310429811477661,9.105451345443726
1503530578652,0.18012696504592896,-0.216278076171875,9.114282727241516
1503530578702,0.1689540147781372,-0.22038674354553223,9.135757
1503530578752,0.17492520064115524,-0.22986054420471191,9.135931730270386
1503530578802,0.17693054676055908,-0.21688413619995117,9.136478424072266
1503530578852,0.1944580078125,-0.245405912399292,9.11245971918106
1503530578902,0.18877801299095154,-0.22116462886333466,9.115816593170166
1503530578952,0.1811480727046728,-0.22265255451202393,9.095919072628021
1503530579002,0.17933595180511475,-0.2435535192489624,9.102581262588501
1503530579052,0.16454124450683594,-0.22422409057617188,9.114805221557617
1503530579102,0.17311471700668335,-0.22119763493537903,9.096295356750488
1503530579152,0.1613096371293068,-0.22195345163345337,9.099916815757751
1503530579202,0.16355133056640625,-0.21716052293777466,9.088783264160156
1503530579252,0.178466796875,-0.21347792446613312,9.122275531291962
1503530579302,0.1687447726726532,-0.21623167768120766,9.10955998301506
1503530579352,0.16464294493198395,-0.22149741649627686,9.104729861021042
1503530579402,0.16903471946716309,-0.23660278,9.103642344474792
1503530579452,0.17360016703605652,-0.23394715785980225,9.11941909790039
1503530579502,0.17456722259521484,-0.22566162049770355,9.128812670707703
1503530579552,0.1881560981273651,-0.2213614284992218,9.116514027118683
1503530579602,0.18339942395687103,-0.22272229194641113,9.123016342520714
1503530579652,0.18357756733894348,-0.22602999210357666,9.118023067712784
1503530579702,0.18325275182724,-0.21314382553100586,9.108741998672485
1503530579752,0.17024779319763184,-0.23198914527893066,9.097216367721558
1503530579802,0.16869866847991943,-0.2337188720703125,9.11082410812378
1503530579852,0.17479005455970764,-0.22431349754333496,9.12140154838562
1503530579902,0.17673322558403015,-0.22654938697814941,9.101680397987366
1503530579952,0.18330597877502441,-0.2387450933456421,9.117165341973305
1503530580002,0.18577361106872559,-0.2377537488937378,9.116439998149872
1503530580052,0.17117667198181152,-0.2316039800643921,9.117512583732605
1503530580102,0.16659986972808838,-0.2178923487663269,9.124907419085503
1503530580152,0.17676685750484467,-0.2150956392288208,9.12904092669487
1503530580202,0.181793212890625,-0.21874237060546875,9.108383417129517
1503530580252,0.17832601070404053,-0.23064905032515526,9.10837197303772
1503530580302,0.16636472940444946,-0.2284051775932312,9.118391871452332
1503530580352,0.17116248607635498,-0.22864612936973572,9.120584607124329
1503530580402,0.17572209239006042,-0.23088074,9.143445372581482
1503530580452,0.1787763237953186,-0.2330605536699295,9.136638283729553
1503530580502,0.18042725324630737,-0.22668606042861938,9.113208293914795
1503530580552,0.17766275256872177,-0.22624140977859497,9.12002968788147
1503530580602,0.18019136786460876,-0.22730955481529236,9.113614439964294
1503530580652,0.18715372681617737,-0.23046407103538513,9.117665410041809
1503530580702,0.1755160093307495,-0.22424286603927612,9.112554430961609
1503530580752,0.1746637225151062,-0.227941632270813,9.124772429466248
1503530580802,0.17822266,-0.2332707643508911,9.108514070510864
1503530580852,0.1866479516029358,-0.2317938208580017,9.115841627120972
1503530580902,0.17177724838256836,-0.22295057773590088,9.117359638214111
1503530580952,0.1780940294265747,-0.2157135009765625,9.108073860406876
1503530581002,0.1926889419555664,-0.20862406492233276,9.11415547132492
1503530581052,0.18703913688659668,-0.216111421585083,9.104857206344604
1503530581102,0.1724342703819275,-0.21083348989486694,9.11454725265503
1503530581152,0.17129267752170563,-0.2312908172607422,9.11355710029602
1503530581202,0.16748854517936707,-0.22363030910491943,9.118014127016068
1503530581252,0.16822509467601776,-0.21574094891548157,9.111571967601776
1503530581302,0.1652134507894516,-0.2282932996749878,9.125890612602234
1503530581352,0.1879209280014038,-0.23255391418933868,9.118020117282867
1503530581402,0.1757141351699829,-0.2279943823814392,9.120561867952347
1503530581452,0.1688406765460968,-0.24421477317810059,9.09780240058899
1503530581502,0.19037580490112305,-0.2149066925048828,9.104301571846008
1503530581552,0.19560366868972778,-0.21939337253570557,9.10533426515758
1503530581602,0.18299251794815063,-0.23369288444519043,9.092857003211975
1503530581652,0.16713076829910278,-0.23735451698303223,9.108964323997498
1503530581702,0.18104612827301025,-0.23219144344329834,9.09934663772583
1503530581752,0.18569634854793549,-0.22635355591773987,9.110502243041992
1503530581802,0.18035888671875,-0.23480647802352905,9.106437414884567
1503530581852,0.19832098484039307,-0.2151089906692505,9.12769615650177
1503530581902,0.1801300048828125,-0.224700927734375,9.141952514648438
1503530581952,0.167755126953125,-0.2227935791015625,9.13670352101326
1503530582002,0.18684935569763184,-0.22441527247428894,9.108805477619171
1503530582052,0.16619062423706055,-0.21860861778259277,9.1241996884346
1503530582102,0.18507811427116394,-0.2430560290813446,9.109503149986267
1503530582152,0.18016579747200012,-0.23937517404556274,9.101319372653961
1503530582202,0.17466765642166138,-0.23076489567756653,9.10647988319397
1503530582252,0.18618464469909668,-0.22679436206817627,9.109718024730682
1503530582302,0.1680462807416916,-0.2046358585357666,9.117516040802002
1503530582352,0.17031703889369965,-0.22234362363815308,9.133227348327637
1503530582402,0.17190122604370117,-0.2308829426765442,9.10590073466301
1503530582452,0.18989849090576172,-0.21712011098861694,9.110252141952515
1503530582502,0.17189961671829224,-0.2091045379638672,9.101292133331299
1503530582552,0.18299254775047302,-0.2227843999862671,9.109674394130707
1503530582602,0.17957321554422379,-0.2102717161178589,9.102589786052704
1503530582652,0.1822427213191986,-0.22067810222506523,9.099533915519714
1503530582702,0.18632507,-0.22047455608844757,9.111296892166138
1503530582752,0.18562628328800201,-0.22383397817611694,9.10611018538475
1503530582802,0.1790509819984436,-0.22597426176071167,9.106812551617622
1503530582852,0.16800537705421448,-0.2235119342803955,9.099495530128479
1503530582902,0.1691807210445404,-0.23040771484375,9.096175909042358
1503530582952,0.16515739262104034,-0.2180667743086815,9.11794137954712
1503530583002,0.16960424184799194,-0.22313523292541504,9.102436304092407
1503530583052,0.1771487295627594,-0.23337432742118835,9.124784469604492
1503530583102,0.18432796001434326,-0.22379577159881592,9.132482051849365
1503530583152,0.18582499027252197,-0.21964645385742188,9.121243044734001
1503530583202,0.17790314555168152,-0.2260647416114807,9.11583611369133
1503530583252,0.1744699478149414,-0.21418046951293945,9.12363052368164
1503530583302,0.16349294781684875,-0.2219562530517578,9.124122619628906
1503530583352,0.17040801048278809,-0.2344207763671875,9.101141571998596
1503530583402,0.180267333984375,-0.21884828805923462,9.10538375377655
1503530583452,0.18026545643806458,-0.2105211615562439,9.10582047700882
1503530583502,0.17386671900749207,-0.21718740463256836,9.117369055747986
1503530583552,0.1719970703125,-0.22475218772888184,9.127906918525696
1503530583602,0.17695742845535278,-0.21893996000289917,9.116129875183105
1503530583652,0.17016100883483887,-0.22088623,9.108360528945923
1503530583702,0.1743144989013672,-0.22442442178726196,9.115083873271942
1503530583752,0.18161869049072266,-0.22395354509353638,9.100385069847107
1503530583802,0.17785457521677017,-0.22219786047935486,9.111515998840332
1503530583852,0.17843192256987095,-0.2118443250656128,9.116914868354797
1503530583902,0.17258751392364502,-0.21130585670471191,9.106730118393898
1503530583952,0.16287171840667725,-0.2251477837562561,9.104301035404205
1503530584002,0.16803467273712158,-0.22244197130203247,9.109584212303162
1503530584052,0.16985151171684265,-0.21996355056762695,9.106157422065735
1503530584102,0.1835949420928955,-0.2253240942955017,9.086421966552734
1503530584152,0.18380552530288696,-0.22569088637828827,9.083273023366928
1503530584202,0.18142420053482056,-0.21732252836227417,9.096827268600464
1503530584252,0.17987403273582458,-0.21902838349342346,9.111202120780945
1503530584302,0.1783621683716774,-0.2271466851234436,9.102026462554932
1503530584352,0.1720593273639679,-0.22362792491912842,9.10974395275116
1503530584402,0.1822519302368164,-0.23780512809753418,9.095917344093323
1503530584452,0.1648719310760498,-0.23151910305023193,9.115700483322144
1503530584502,0.1773010492324829,-0.21525025367736816,9.108046770095825
1503530584552,0.18863099813461304,-0.22539913654327393,9.119519591331482
1503530584602,0.18027514219284058,-0.2237779200077057,9.092497110366821
1503530584652,0.17813577689230442,-0.22309283539652824,9.111153364181519
1503530584702,0.15949177742004395,-0.2111673355102539,9.111331462860107
1503530584752,0.17967689037322998,-0.2073112055659294,9.119609117507935
1503530584802,0.1644226312637329,-0.23107123374938965,9.09748125076294
1503530584852,0.17938232421875,-0.23564148,9.077399373054504
1503530584902,0.17959128320217133,-0.21977388858795166,9.101139664649963
1503530584952,0.16807180643081665,-0.23679709434509277,9.10908728837967
1503530585002,0.1563132405281067,-0.2210463285446167,9.114379733800888
1503530585052,0.1710227131843567,-0.21767564862966537,9.088894009590149
1503530585102,0.16756772994995117,-0.22292417287826538,9.09569501876831
1503530585152,0.16911160200834274,-0.23879539966583252,9.117708206176758
1503530585202,0.15986227989196777,-0.22639214992523193,9.119085345417261
1503530585252,0.16618773341178894,-0.23778384923934937,9.119095
1503530585302,0.18109130859375,-0.2427826225757599,9.131470024585724
1503530585352,0.17460787296295166,-0.21699678897857666,9.108539521694183
1503530585402,0.18314099311828613,-0.23642590641975403,9.104650735855103
1503530585452,0.17502683401107788,-0.2418578863143921,9.111867904663086
1503530585502,0.17097413539886475,-0.21336084604263306,9.111452341079712
1503530585552,0.1898813247680664,-0.22860592603683472,9.124014258384705
1503530585602,0.17599639296531677,-0.22035980224609375,9.105482816696167
1503530585652,0.17347466945648193,-0.2333221435546875,9.114503681659698
1503530585702,0.17868196964263916,-0.2367401123046875,9.10372930765152
1503530585752,0.18456479907035828,-0.22755432,9.105445921421051
1503530585802,0.1779567003250122,-0.22381377220153809,9.100322283804417
1503530585852,0.17032110691070557,-0.20782017707824707,9.103846669197083
1503530585902,0.18102216720581055,-0.237030029296875,9.121935248374939
1503530585952,0.17080077528953552,-0.22022400051355362,9.099676370620728
1503530586002,0.1749192774295807,-0.22301283478736877,9.120030343532562
1503530586052,0.17921572923660278,-0.22956785932183266,9.110681533813477
1503530586102,0.17693543434143066,-0.23096373677253723,9.092849373817444
1503530586152,0.18209189176559448,-0.23375530540943146,9.105008363723755
1503530586202,0.1708102822303772,-0.23117749392986298,9.130101144313812
1503530586252,0.16826540231704712,-0.22522884607315063,9.131570905447006
1503530586302,0.1795174777507782,-0.2191183865070343,9.125012874603271
1503530586352,0.17694839276373386,-0.2253308892250061,9.115001320838928
1503530586402,0.17976287007331848,-0.23092931509017944,9.100410103797913
1503530586452,0.18117094039916992,-0.22320953011512756,9.093485116958618
1503530586502,0.17559784650802612,-0.2246021032333374,9.114125847816467
1503530586552,0.17640280723571777,-0.24106675386428833,9.099287748336792
1503530586602,0.16817138344049454,-0.2343517541885376,9.088761866092682
1503530586652,0.1657191663980484,-0.2132001519203186,9.101071953773499
1503530586702,0.16430695354938507,-0.2222822606563568,9.116570353507996
1503530586752,0.17398619651794434,-0.2205023169517517,9.118261098861694
1503530586802,0.18585205078125,-0.2267557978630066,9.102432489395142
1503530586852,0.17423582077026367,-0.22730588912963867,9.115055799484253
1503530586902,0.16736024618148804,-0.21875733137130737,9.104711532592773
1503530586952,0.1707324981689453,-0.22231674194335938,9.132423460483551
1503530587002,0.16411417722702026,-0.2145928144454956,9.119460582733154
1503530587052,0.1731884479522705,-0.21593189239501953,9.114801824092865
1503530587102,0.1803392767906189,-0.2349613904953003,9.113514721393585
1503530587152,0.17895203828811646,-0.22878602147102356,9.105229239910841
1503530587202,0.17463559471070766,-0.22462649643421173,9.098277688026428
1503530587252,0.17355689406394958,-0.23039275407791138,9.108985900878906
1503530587302,0.17997241020202637,-0.23128527402877808,9.114452004432678
1503530587352,0.1851348876953125,-0.217315673828125,9.100768983364105
1503530587402,0.17475050687789917,-0.21379369497299194,9.114046096801758
1503530587452,0.1710423231124878,-0.2221897840499878,9.124423831701279
1503530587502,0.17945736646652222,-0.22335878014564514,9.095595121383667
1503530587552,0.16821348667144775,-0.22153809666633606,9.086472272872925
1503530587602,0.16428488492965698,-0.2206137478351593,9.08093512058258
1503530587652,0.17709261178970337,-0.22771161794662476,9.086276173591614
1503530587702,0.1792755126953125,-0.23459473252296448,9.1093869805336
1503530587752,0.1730879247188568,-0.22933894395828247,9.11099100112915
1503530587802,0.1864016056060791,-0.22473955154418945,9.113989114761353
1503530587852,0.18589162826538086,-0.22919511795043945,9.125124037265778
1503530587902,0.18123748898506165,-0.23184204,9.120921790599823
1503530587952,0.17002397775650024,-0.22029149532318115,9.117033051326871
1503530588002,0.17697513103485107,-0.21238304674625397,9.106292605400085
1503530588052,0.1757093071937561,-0.22564268112182617,9.108287453651428
1503530588102,0.16888001561164856,-0.24370241165161133,9.117171198129654
1503530588152,0.17218109965324402,-0.23801153898239136,9.111877202987671
1503530588202,0.1645943522453308,-0.21696257591247559,9.120599448680878
1503530588252,0.1771228313446045,-0.21317383646965027,9.11094617843628
1503530588302,0.18240419030189514,-0.23183834552764893,9.070167064666748
1503530588352,0.1859230399131775,-0.22873234748840332,9.101266860961914
1503530588402,0.17552530765533447,-0.22620688006281853,9.11389684677124
1503530588452,0.176116943359375,-0.2241680920124054,9.1240935921669
1503530588502,0.1891498565673828,-0.21139341592788696,9.125036120414734
1503530588552,0.1858433187007904,-0.23142790794372559,9.108479380607605
1503530588602,0.177528977394104,-0.22288572788238525,9.096756517887115
1503530588652,0.179664745926857,-0.21461954712867737,9.091943144798279
1503530588702,0.16688036918640137,-0.20519524812698364,9.107726335525513
1503530588752,0.17543625831604004,-0.22476696968078613,9.119634687900543
1503530588802,0.16887634992599487,-0.22528747469186783,9.111769676208496
1503530588852,0.1791808009147644,-0.2233460769057274,9.110539374873042
1503530588902,0.19336789846420288,-0.1995067596435547,9.10047072172165
1503530588952,0.16606318950653076,-0.2273010015487671,9.092742562294006
1503530589002,0.1706085205078125,-0.2280273400247097,9.114333987236023
1503530589052,0.1696624793112278,-0.215179443359375,9.127181947231293
1503530589102,0.1672820895910263,-0.2204132080078125,9.095291018486023
1503530589152,0.1654815673828125,-0.2166181281208992,9.088143110275269
1503530589202,0.1711721420288086,-0.21740411221981049,9.111199080944061
1503530589252,0.1829603910446167,-0.2141823172569275,9.127153040841222
1503530589302,0.16133791208267212,-0.22111450135707855,9.124995231628418
1503530589352,0.17106133699417114,-0.22405102849006653,9.106879115104675
1503530589402,0.18475830554962158,-0.226679265499115,9.12329626083374
1503530589452,0.16832441091537476,-0.21985331177711487,9.11202847957611
1503530589502,0.1819162368774414,-0.22598755359649658,9.12483674287796
1503530589552,0.19584429264068604,-0.22796201705932617,9.113995790481567
1503530589602,0.17801091074943542,-0.23831748962402344,9.097572803497314
1503530589652,0.1752801537513733,-0.20865720510482788,9.081671252846718
1503530589702,0.17874674499034882,-0.2197842001914978,9.081913948059082
1503530589752,0.1753462255001068,-0.21414470672607422,9.10133957862854
1503530589802,0.1680593490600586,-0.23462101817131042,9.113663256168365
1503530589852,0.16914618015289307,-0.22260618209838867,9.118769526481628
1503530589902,0.1841791868209839,-0.2059084177017212,9.106678247451782
1503530589952,0.16458472609519958,-0.2185821533203125,9.087047338485718
1503530590002,0.1674872636795044,-0.20849061012268066,9.108335494995117
1503530590052,0.1819043755531311,-0.2061266303062439,9.100121855735779
1503530590102,0.17593011260032654,-0.21652594208717346,9.118877559900284
1503530590152,0.17441356927156448,-0.21803750842809677,9.117574572563171
1503530590202,0.1748867779970169,-0.2169107012450695,9.1071075797081
1503530590252,0.1724626123905182,-0.22452867031097412,9.092508792877197
1503530590302,0.16756051778793335,-0.2324608564376831,9.090100884437561
1503530590352,0.1740933656692505,-0.21819445490837097,9.110007047653198
1503530590402,0.18193960189819336,-0.21983641386032104,9.10890805721283
1503530590452,0.17277029156684875,-0.229497492313385,9.101863205432892
1503530590502,0.1793169379234314,-0.2308829128742218,9.11147826910019
1503530590552,0.17638427019119263,-0.23190733790397644,9.108371555805206
1503530590602,0.16961420699954033,-0.22987300157546997,9.103209882974625
1503530590652,0.16991347074508667,-0.23418879508972168,9.105209201574326
1503530590702,0.17560243606567383,-0.2452392578125,9.12848448753357
1503530590752,0.18180566653609276,-0.2341676950454712,9.133158206939697
1503530590802,0.16723203659057617,-0.22227197885513306,9.103520393371582
1503530590852,0.1650913953781128,-0.2186771184206009,9.094828367233276
1503530590902,0.1699722409248352,-0.21781524643301964,9.106645584106445
1503530590952,0.1862659454345703,-0.22284793853759766,9.120906755328178
1503530591002,0.18677031993865967,-0.21278691291809082,9.120841935276985
1503530591052,0.1824132204055786,-0.21857500076293945,9.122578799724579
1503530591102,0.18213501572608948,-0.23174132406711578,9.121756196022034
1503530591152,0.17608579993247986,-0.22802019119262695,9.113342463970184
1503530591202,0.18770575523376465,-0.22292235493659973,9.112638354301453
1503530591252,0.1759699583053589,-0.21249735355377197,9.106379449367523
1503530591302,0.16877341270446777,-0.22511351108551025,9.087804317474365
1503530591352,0.1752537488937378,-0.2253953218460083,9.084060937166214
1503530591402,0.1610879898071289,-0.21890632808208466,9.098327040672302
1503530591452,0.17294764518737793,-0.23369145393371582,9.111856043338776
1503530591502,0.1824427992105484,-0.2349635362625122,9.086037874221802
1503530591552,0.18058837950229645,-0.2197582721710205,9.097994565963745
1503530591602,0.1709127426147461,-0.22448915243148804,9.113134443759918
1503530591652,0.16995461285114288,-0.21701812744140625,9.123360633850098
1503530591702,0.17023956589400768,-0.23528754711151123,9.100876331329346
1503530591752,0.19172894954681396,-0.22999602556228638,9.133643388748169
1503530591802,0.19232177734375,-0.23507684469223022,9.1160489320755
1503530591852,0.18408545851707458,-0.2125871181488037,9.116873025894165
1503530591902,0.17693093419075012,-0.2262028455734253,9.100299954414368
1503530591952,0.184647798538208,-0.22112911939620972,9.10631275177002
1503530592002,0.1822444498538971,-0.2063990831375122,9.100801855325699
1503530592052,0.16354715824127197,-0.2287890911102295,9.105720281600952
1503530592102,0.18322312831878662,-0.2460063099861145,9.103302404284477
1503530592152,0.1631087064743042,-0.24448846280574799,9.077107191085815
1503530592202,0.18430602550506592,-0.21661794185638428,9.092782497406006
1503530592252,0.1881156489253044,-0.236120343208313,9.095233079046011
1503530592302,0.16092288494110107,-0.2308361530303955,9.103352427482605
1503530592352,0.18248021602630615,-0.21989911794662476,9.106603547930717
1503530592402,0.1666707992553711,-0.2306475043296814,9.100651443004608
1503530592452,0.1753692626953125,-0.227081298828125,9.099578998982906
1503530592502,0.1925048828125,-0.2327880859375,9.123383045196533
1503530592552,0.15057373046875,-0.22999292612075806,9.124774932861328
1503530592602,0.17180097103118896,-0.2322050929069519,9.100596368312836
1503530592652,0.18824860453605652,-0.21881988644599915,9.114215612411499
1503530592702,0.1804494857788086,-0.22274839878082275,9.126046061515808
1503530592752,0.1706869937479496,-0.2089102864265442,9.10866561345756
1503530592802,0.1726638674736023,-0.22330933809280396,9.10881470143795
1503530592852,0.18173342943191528,-0.21503308415412903,9.10891878604889
1503530592902,0.17652922868728638,-0.21322008967399597,9.131089448928833
1503530592952,0.1898629069328308,-0.2103424072265625,9.120794951915741
1503530593002,0.19576168060302734,-0.21793758869171143,9.114885926246643
1503530593052,0.1761465072631836,-0.22962328791618347,9.106374651193619
1503530593102,0.1775936484336853,-0.22890177369117737,9.107845187187195
1503530593152,0.16860657930374146,-0.231170654296875,9.090914607048035
1503530593202,0.17716731131076813,-0.22401896119117737,9.096919044852257
1503530593252,0.17457424849271774,-0.22349673509597778,9.103531837463379
1503530593302,0.17439612746238708,-0.22948315739631653,9.111825108528137
1503530593352,0.17430514097213745,-0.22331726551055908,9.096033036708832
1503530593402,0.16976243257522583,-0.22207295894622803,9.099156871438026
1503530593452,0.17774748802185059,-0.22795546054840088,9.102229285985231
1503530593502,0.16929595172405243,-0.21935755014419556,9.111504554748535
1503530593552,0.1653890758752823,-0.22993469,9.11218810081482
1503530593602,0.16719233989715576,-0.2211928367614746,9.085695505142212
1503530593652,0.17491554468870163,-0.21347200870513916,9.11750328540802
1503530593702,0.18012690544128418,-0.2293371558189392,9.115973711013794
1503530593752,0.18459957838058472,-0.22432288527488708,9.100886106491089
1503530593802,0.19136643409729004,-0.21782761812210083,9.126212865114212
1503530593852,0.2038007378578186,-0.21471668779850006,9.13135713338852
1503530593902,0.1871395707130432,-0.22232264280319214,9.127705693244934
1503530593952,0.1759120374917984,-0.230063296854496,9.11711771786213
1503530594002,0.17453065514564514,-0.22961737215518951,9.113155663013458
1503530594052,0.17497193068265915,-0.22997253015637398,9.10704043507576
1503530594102,0.17395020000000003,-0.22722706198692322,9.108877977356315
1503530594152,0.17161840200424194,-0.22609850764274597,9.108627
1503530594202,0.1689403261989355,-0.21905303001403809,9.110807105898857
1503530594252,0.170684814453125,-0.21881043910980225,9.119588792324066
1503530594302,0.1773170828819275,-0.22284093499183655,9.112120389938354
1503530594352,0.18575990200042725,-0.21207040548324585,9.106610238552094
1503530594402,0.1742161512374878,-0.22089064121246338,9.123655200004578
1503530594452,0.16796815395355225,-0.23480193316936493,9.107854127883911
1503530594502,0.1749473214149475,-0.2295588254928589,9.095972418785095
1503530594552,0.17202633619308472,-0.21945065259933472,9.100631181150675
1503530594602,0.17431122064590454,-0.2258697748184204,9.09421455860138
1503530594652,0.1789563149213791,-0.21406996250152588,9.109634399414062
1503530594702,0.17716574668884277,-0.21587789058685303,9.112292766571045
1503530594752,0.17050474882125854,-0.22168609872460365,9.106729462742805
1503530594802,0.18282020092010498,-0.21975615620613098,9.112330436706543
1503530594852,0.18318957090377808,-0.23021245002746582,9.128165245056152
1503530594902,0.1835305392742157,-0.2361929714679718,9.09508228302002
1503530594952,0.1907244622707367,-0.2173987627029419,9.09226393699646
1503530595002,0.18984301388263702,-0.2277776002883911,9.101043492555618
1503530595052,0.17756372690200806,-0.22559243440628052,9.102074837312102
1503530595102,0.16508698463439941,-0.23054444789886475,9.099001199007034
1503530595152,0.18182623386383057,-0.21644675731658936,9.088861465454102
1503530595202,0.16226506233215332,-0.23609089851379395,9.105564713478088
1503530595252,0.18111443519592285,-0.24036641418933868,9.118292033672333
1503530595302,0.1700725555419922,-0.23634152114391327,9.107299208641052
1503530595352,0.17280763387680054,-0.22284972667694092,9.087611436843872
1503530595402,0.1735316663980484,-0.2391815185546875,9.106372952461243
1503530595452,0.164276123046875,-0.22016191482543945,9.099186778068542
1503530595502,0.17891967296600342,-0.23216432332992554,9.093482285737991
1503530595552,0.16655373573303223,-0.2260972261428833,9.08264821767807
1503530595602,0.18195581436157227,-0.2347869873046875,9.128706216812134
1503530595652,0.18302246183156967,-0.21812188625335693,9.107930541038513
1503530595702,0.1713661551475525,-0.22374647855758667,9.119624733924866
1503530595752,0.15873873233795166,-0.21507984399795532,9.11458683013916
1503530595802,0.17129766941070557,-0.220759779214859,9.128324508666992
1503530595852,0.1848907470703125,-0.246124267578125,9.104339957237244
1503530595902,0.18109130859375,-0.2261199951171875,9.141952753067017
1503530595952,0.15757906436920166,-0.22354531288146973,9.099290370941162
1503530596002,0.17176026105880737,-0.214447021484375,9.10711121559143
1503530596052,0.1766606569290161,-0.21988164633512497,9.083491802215576
1503530596102,0.18395155668258667,-0.21815648674964905,9.108780801296234
1503530596152,0.17641493678092957,-0.21361494064331055,9.11877766996622
1503530596202,0.17161408066749573,-0.22441256046295166,9.120529
1503530596252,0.1683872640132904,-0.23592209815979004,9.120916739106178
1503530596302,0.17488253116607666,-0.21015024185180664,9.125145465135574
1503530596352,0.1813594251871109,-0.2196611762046814,9.126168608665466
1503530596402,0.1775396466255188,-0.2262902781367302,9.099710702896118
1503530596452,0.16704940795898438,-0.22384393215179443,9.112979674711823
1503530596502,0.18394750356674194,-0.21875405311584473,9.111462533473969
1503530596552,0.18585205078125,-0.21565247,9.10585606098175
1503530596602,0.17516279220581055,-0.2154562845826149,9.11406695842743
1503530596652,0.17189306020736694,-0.22153174877166748,9.102936267852783
1503530596702,0.17507079243659973,-0.23979437351226807,9.110614717006683
1503530596752,0.17586469650268555,-0.22302526235580444,9.10384526848793
1503530596802,0.18694907426834106,-0.22917234897613525,9.107561022043228
1503530596852,0.172804594039917,-0.23914968967437744,9.112660348415375
1503530596902,0.16564726829528809,-0.2266649529337883,9.106443047523499
1503530596952,0.1790018081665039,-0.22700905799865723,9.101242989301682
1503530597002,0.18751806020736694,-0.22936445474624634,9.122269868850708
1503530597052,0.17604470252990723,-0.23138117790222168,9.1318941116333
1503530597102,0.1694488525390625,-0.2182745486497879,9.098161101341248
1503530597152,0.1656048595905304,-0.22198829054832458,9.108997955918312
1503530597202,0.16533517837524414,-0.228759765625,9.117529392242432
1503530597252,0.1735936403274536,-0.22895288467407227,9.11733341217041
1503530597302,0.17324677109718323,-0.22813689708709717,9.093384
1503530597352,0.1710880696773529,-0.22619402408599854,9.082365036010742
1503530597402,0.1655077338218689,-0.2132110595703125,9.08007287979126
1503530597452,0.1616908311843872,-0.22121351957321167,9.104007601737976
1503530597502,0.1826087236404419,-0.21528750658035278,9.115457713603973
1503530597552,0.18772828578948975,-0.22006893157958984,9.121757805347443
1503530597602,0.1737060546875,-0.23612212389707565,9.120048463344574
1503530597652,0.17552918195724487,-0.22816526889801025,9.117593228816986
1503530597702,0.18388915061950684,-0.21572694182395935,9.1147940158844
1503530597752,0.17894244194030762,-0.22189652919769287,9.113007724285126
1503530597802,0.18196320533752441,-0.2246965765953064,9.113994240760803
1503530597852,0.18543395400047302,-0.21489077806472778,9.093457221984863
1503530597902,0.1749933958053589,-0.22188210487365723,9.098377346992493
1503530597952,0.1739284098148346,-0.22770535945892334,9.091184139251709
1503530598002,0.1736721694469452,-0.23190981149673462,9.116413593292236
1503530598052,0.1798717975616455,-0.23275507986545563,9.113363027572632
1503530598102,0.17539942264556885,-0.224517822265625,9.095972254872322
1503530598152,0.16997139155864716,-0.2260141372680664,9.100264340639114
1503530598202,0.1764587163925171,-0.22429808974266052,9.110676646232605
1503530598252,0.18196511268615723,-0.22099708765745163,9.093857645988464
1503530598302,0.1806073784828186,-0.2224513441324234,9.088223993778229
1503530598352,0.17622923851013184,-0.21915772557258606,9.09780204296112
1503530598402,0.17525100521743298,-0.21469879150390625,9.103149741888046
1503530598452,0.16017770767211914,-0.2235095500946045,9.104226481169462
1503530598502,0.1705150604248047,-0.2313973605632782,9.109511107206345
1503530598552,0.1778717041015625,-0.2164468765258789,9.116196930408478
1503530598602,0.1730271875858307,-0.22358179092407227,9.115012869238853
1503530598652,0.18322879076004028,-0.22853617370128632,9.089844942092896
1503530598702,0.1707097291946411,-0.22897339,9.09908151626587
1503530598752,0.1789575219154358,-0.24657166004180908,9.062366485595703
1503530598802,0.1741463840007782,-0.23279023170471191,9.096861124038696
1503530598852,0.15294349193572998,-0.2211640477180481,9.113052368164062
1503530598902,0.18156743049621582,-0.20401489734649658,9.09715986251831
1503530598952,0.17857640981674194,-0.2146681547164917,9.106779754161835
1503530599002,0.1711914837360382,-0.21831154823303223,9.077534437179565
1503530599052,0.16622862219810486,-0.21325558423995972,9.094972133636475
1503530599102,0.1806020736694336,-0.2275390625,9.098058067262173
1503530599152,0.16877245903015137,-0.2294224314391613,9.099974162876606
1503530599202,0.18688249588012695,-0.21406590938568115,9.085598111152649
1503530599252,0.1863439902663231,-0.21981626749038696,9.10862398147583
1503530599302,0.184417724609375,-0.227081298828125,9.117660492658615
1503530599352,0.16126799583435059,-0.23681855201721191,9.10405433177948
1503530599402,0.1698974370956421,-0.22430196404457092,9.136120796203613
1503530599452,0.16064941883087158,-0.2291000485420227,9.086940884590149
1503530599502,0.19064861536026,-0.23756253719329834,9.10514022409916
1503530599552,0.1834389567375183,-0.22311089932918549,9.104187965393066
1503530599602,0.1768447756767273,-0.22116851806640625,9.11685961484909
1503530599652,0.16739016771316528,-0.21945189999999998,9.099006652832031
1503530599702,0.15964233875274658,-0.2208513617515564,9.083989381790161
1503530599752,0.1840658187866211,-0.2294815182685852,9.106756925582886
1503530599802,0.16993498802185059,-0.2200709581375122,9.132557034492493
1503530599852,0.1838291883468628,-0.21945440769195557,9.111219093203545
1503530599902,0.17646116018295288,-0.23896300792694092,9.113266199827194
1503530599952,0.1886391043663025,-0.22741638123989105,9.106333877891302
1503530600002,0.18096923828125,-0.22576904296875,9.112938642501831
1503530600052,0.17439335584640503,-0.234228253364563,9.13006865978241
1503530600102,0.16787904500961304,-0.24346649646759033,9.106416076421738
1503530600152,0.1726803183555603,-0.22244231402873993,9.108456254005432
1503530600202,0.164459228515625,-0.2230028212070465,9.104112148284912
1503530600252,0.1668701171875,-0.2293199896812439,9.119772583246231
1503530600302,0.18750911951065063,-0.22745370864868164,9.114764206111431
1503530600352,0.1920309066772461,-0.21498513221740723,9.11693125963211
1503530600402,0.17351049184799194,-0.21931738406419754,9.130449652671814
1503530600452,0.17695951461791992,-0.22067448496818542,9.13736629486084
1503530600502,0.18953409790992737,-0.22424566745758057,9.113912582397461
1503530600552,0.17953550815582275,-0.22400665283203125,9.118068933486938
1503530600602,0.17729127407073975,-0.21887457370758057,9.108254365622997
1503530600652,0.17966002225875854,-0.2145019769668579,9.10233759880066
1503530600702,0.171991765499115,-0.22694958746433258,9.10658323764801
1503530600752,0.18455064296722412,-0.2283695936203003,9.109438180923462
1503530600802,0.18988406658172607,-0.23221375048160553,9.088536784052849
1503530600852,0.1785222291946411,-0.2238311767578125,9.103447675704956
1503530600902,0.1758204847574234,-0.21182751655578613,9.105054378509521
1503530600952,0.17352792620658875,-0.22086310386657715,9.088072150945663
1503530601002,0.17870330810546875,-0.22064971923828125,9.091484002768993
1503530601052,0.18169885873794556,-0.20999643206596375,9.10436236858368
1503530601102,0.1735163927078247,-0.2122889906167984,9.091424465179443
1503530601152,0.16851495206356049,-0.21865659952163696,9.08384382724762
1503530601202,0.1771996021270752,-0.2274169921875,9.106900930404663
1503530601252,0.1821027398109436,-0.2250344157218933,9.100866794586182
1503530601302,0.17739930748939514,-0.21741285920143127,9.098230302333832
1503530601352,0.16739702224731445,-0.22431355714797974,9.118440389633179
1503530601402,0.17385506629943848,-0.22982116416096687,9.09903335571289
1503530601452,0.1738608479499817,-0.2282549813389778,9.080883514136076
1503530601502,0.17514097690582275,-0.2260308861732483,9.087537586688995
1503530601552,0.18102280795574188,-0.218328058719635,9.10609483718872
1503530601602,0.1770639419555664,-0.23360991477966309,9.09270191192627
1503530601652,0.17540787905454636,-0.2318878173828125,9.11085033416748
1503530601702,0.1704035997390747,-0.2376207709312439,9.11895763874054
1503530601752,0.17131531238555908,-0.22161078453063965,9.12370240688324
1503530601802,0.17495976388454437,-0.21933919191360474,9.094408988952637
1503530601852,0.1862696409225464,-0.21884748339653015,9.09873616695404
1503530601902,0.176987886428833,-0.22453856468200684,9.107484608888626
1503530601952,0.17668089270591736,-0.2273385189473629,9.101243376731873
1503530602002,0.1694183349609375,-0.21731632947921753,9.07826554775238
1503530602052,0.16994324326515198,-0.21393432840704918,9.088156342506409
1503530602102,0.16789308190345764,-0.2199607491493225,9.079907059669495
1503530602152,0.17763656377792358,-0.22374679148197174,9.113849639892578
1503530602202,0.1719011664390564,-0.220550537109375,9.114057391881943
1503530602252,0.15832579135894775,-0.22320769727230072,9.11044555902481
1503530602302,0.1851557493209839,-0.24253976345062256,9.113808929920197
1503530602352,0.19216544926166534,-0.23362606763839722,9.113484527915716
1503530602402,0.18901559710502625,-0.22268801927566528,9.105947405099869
1503530602452,0.18333372473716736,-0.2227347232401371,9.103050768375397
1503530602502,0.18209411203861237,-0.21205049753189087,9.097985535860062
1503530602552,0.1929997205734253,-0.22917675971984863,9.127352952957153
1503530602602,0.1715383529663086,-0.23926186561584473,9.127211265265942
1503530602652,0.18555665016174316,-0.22218471765518188,9.107592701911926
1503530602702,0.1967926025390625,-0.219451904296875,9.122421026229858
1503530602752,0.18991303443908691,-0.2159925103187561,9.097278594970703
1503530602802,0.15722167491912842,-0.23235290125012398,9.121685028076172
1503530602852,0.17820525169372559,-0.2325810194015503,9.071620464324951
1503530602902,0.1670204997062683,-0.21703574061393738,9.118985056877136
1503530602952,0.17829397320747375,-0.22385670244693756,9.11179494857788
1503530603002,0.18451232463121414,-0.22541199624538422,9.130470514297485
1503530603052,0.184295654296875,-0.2269221544265747,9.120940923690796
1503530603102,0.17518772184848785,-0.223982572555542,9.114316582679749
1503530603152,0.1745443344116211,-0.2399841547012329,9.09819221496582
1503530603202,0.1581682413816452,-0.2243565320968628,9.083999428898096
1503530603252,0.16328006982803345,-0.23137325048446655,9.094345569610596
1503530603302,0.1754106879234314,-0.22045618295669556,9.138969421386719
1503530603352,0.16453614830970764,-0.22619163990020752,9.113753974437714
1503530603402,0.16084599494934082,-0.21793630346655846,9.117929816246033
1503530603452,0.16822689771652222,-0.21926909685134888,9.096849381923676
1503530603502,0.167527437210083,-0.2256317138671875,9.106606125831604
1503530603552,0.1738617718219757,-0.23022770881652832,9.103621006011963
1503530603602,0.1663665771484375,-0.23652058839797974,9.079671859741211
1503530603652,0.16731935739517212,-0.22867918014526367,9.11143445968628
1503530603702,0.17923863977193832,-0.22806614637374878,9.099472761154175
1503530603752,0.17563477158546448,-0.2201043963432312,9.080795481801033
1503530603802,0.17546749114990234,-0.22938048839569092,9.091308951377869
1503530603852,0.1815592646598816,-0.2323099821805954,9.095763921737671
1503530603902,0.1772558093070984,-0.22286558151245117,9.075809597969055
1503530603952,0.194000244140625,-0.21225443482398987,9.092558026313782
1503530604002,0.19710588455200195,-0.2218758463859558,9.107826262712479
1503530604052,0.1737579107284546,-0.22907714918255806,9.103286623954773
1503530604102,0.1634521484375,-0.22714264690876007,9.09327781200409
1503530604152,0.1742139607667923,-0.222316175699234,9.103659749031067
1503530604202,0.1766485571861267,-0.22877132892608643,9.119669198989868
1503530604252,0.18122926354408264,-0.23969906568527222,9.112664461135864
1503530604302,0.16803967952728271,-0.23350182175636292,9.094611048698425
1503530604352,0.1672612428665161,-0.22409558296203613,9.097891926765442
1503530604402,0.17394256591796875,-0.22231292724609375,9.101714968681335
1503530604452,0.17139855027198792,-0.22539598494768143,9.100680351257324
1503530604502,0.17060509324073792,-0.21888768672943115,9.113191187381744
1503530604552,0.16733036935329437,-0.22135430574417114,9.10376238822937
1503530604602,0.16828491166234016,-0.23368102312088013,9.108698725700378
1503530604652,0.1793125867843628,-0.2316938042640686,9.114133298397064
1503530604702,0.1774095892906189,-0.22941061854362488,9.103551983833313
1503530604752,0.1791778802871704,-0.23392638564109802,9.098907798528671
1503530604802,0.17060673236846924,-0.23447371274232864,9.11300778388977
1503530604852,0.17090469598770142,-0.23192891478538513,9.110373377799988
1503530604902,0.18150636553764343,-0.23789244890213013,9.126542329788208
1503530604952,0.1797541379928589,-0.24183655,9.1106538772583
1503530605002,0.17631064355373383,-0.24312108755111694,9.088241815567017
1503530605052,0.1718824803829193,-0.2179732322692871,9.101001739501953
1503530605102,0.17246398329734802,-0.2265990972518921,9.077483892440796
1503530605152,0.1826499104499817,-0.21612763404846191,9.087473750114441
1503530605202,0.18142607808113098,-0.20711003243923187,9.102667182683945
1503530605252,0.17049956321716309,-0.20836548507213593,9.101989895105362
1503530605302,0.17698359489440918,-0.21437662839889526,9.11322271823883
1503530605352,0.16832029819488525,-0.2194506675004959,9.104632377624512
1503530605402,0.17399811744689941,-0.2260969579219818,9.103281483054161
1503530605452,0.1798182874917984,-0.22133871912956238,9.10891106724739
1503530605502,0.17631131410598755,-0.22734737396240234,9.099898934364319
1503530605552,0.17935273051261902,-0.22658586502075195,9.082529544830322
1503530605602,0.1699284315109253,-0.2199990451335907,9.091005861759186
1503530605652,0.16990194469690323,-0.21480107307434082,9.11254096031189
1503530605702,0.1734924465417862,-0.242295503616333,9.122410655021667
1503530605752,0.1876245141029358,-0.22688698768615723,9.121669694781303
1503530605802,0.17999982833862305,-0.22163203358650208,9.129785299301147
1503530605852,0.16823428869247437,-0.22881349921226501,9.120009303092957
1503530605902,0.17443007230758667,-0.2267686426639557,9.096748352050781
1503530605952,0.1671391725540161,-0.2361941933631897,9.080216467380524
1503530606002,0.17053097486495972,-0.22866573929786682,9.087048292160034
1503530606052,0.18088161945343018,-0.2275732420384884,9.096998572349548
1503530606102,0.18109131,-0.22088623046875,9.11480700969696
1503530606152,0.17950469255447388,-0.22456756234169006,9.11772732436657
1503530606202,0.17182892560958862,-0.21799391508102417,9.120914503932
1503530606252,0.16210442781448364,-0.2172328233718872,9.116889506578445
1503530606302,0.17432492971420288,-0.24217069149017334,9.120515882968903
1503530606352,0.1657540500164032,-0.22470778226852417,9.113541841506958
1503530606402,0.1729300618171692,-0.21880298852920532,9.12202274799347
1503530606452,0.18687158823013306,-0.23142725229263306,9.108129024505615
1503530606502,0.17523863911628723,-0.2207666039466858,9.119957685470581
1503530606552,0.17757586389780045,-0.2284832000732422,9.117283344268799
1503530606602,0.1755131483078003,-0.21741163730621338,9.127598136663437
1503530606652,0.17144593596458435,-0.2320592999458313,9.117246627807617
1503530606702,0.17646509408950806,-0.22272351384162903,9.086281061172485
1503530606752,0.17931365966796875,-0.21788299083709717,9.113092422485352
1503530606802,0.1772146224975586,-0.21422481536865234,9.093985319137573
1503530606852,0.17447662353515625,-0.2319638729095459,9.104827761650085
1503530606902,0.173095079138875,-0.21295511722564697,9.08376906812191
1503530606952,0.17403319478034973,-0.22537660598754883,9.093688488006592
1503530607002,0.17584229,-0.20552825927734375,9.112197518348694
1503530607052,0.17357787489891052,-0.22181762754917145,9.101349359378219
1503530607102,0.1715654730796814,-0.2263924777507782,9.10290315747261
1503530607152,0.17846617102622986,-0.22863304615020752,9.114808201789856
1503530607202,0.17007935047149658,-0.22760438919067383,9.117437362670898
1503530607252,0.16645628213882446,-0.23527997732162476,9.101527690887451
1503530607302,0.17197591066360474,-0.225555419921875,9.115591526031494
1503530607352,0.17877447605133057,-0.22950027883052826,9.10508108139038
1503530607402,0.1817193627357483,-0.2316717505455017,9.119164109230042
1503530607452,0.17578154802322388,-0.2252436876296997,9.10122698545456
1503530607502,0.1739349365234375,-0.21242321282625198,9.099482893943787
1503530607552,0.1848253607749939,-0.220001220703125,9.103389292955399
1503530607602,0.18249869346618652,-0.22562319040298462,9.092455387115479
1503530607652,0.16964472830295563,-0.22264036536216736,9.091726660728455
1503530607702,0.18247342109680176,-0.22063866257667542,9.106206476688385
1503530607752,0.18182611465454102,-0.2213958501815796,9.110092163085938
1503530607802,0.1604212522506714,-0.21983683109283447,9.105131685733795
1503530607852,0.16454732418060303,-0.22130036354064941,9.097844958305359
1503530607902,0.16681936383247375,-0.22087132930755615,9.091781824827194
1503530607952,0.17889225482940674,-0.20941588282585144,9.102213621139526
1503530608002,0.1762923002243042,-0.21347105503082275,9.103155493736267
1503530608052,0.1776188611984253,-0.2216317355632782,9.081756353378296
1503530608102,0.18287718296051025,-0.22467538714408875,9.095909833908081
1503530608152,0.1863250732421875,-0.22021794319152832,9.109854191541672
1503530608202,0.18700328469276428,-0.2198028862476349,9.127383708953857
1503530608252,0.17748647928237915,-0.22333821654319763,9.119685769081116
1503530608302,0.16858887672424316,-0.21811890602111816,9.106615796685219
1503530608352,0.16771121323108673,-0.2159367799758911,9.100786596536636
1503530608402,0.17864865064620972,-0.2297419309616089,9.117063403129578
1503530608452,0.18577980995178223,-0.23843321204185486,9.100803852081299
1503530608502,0.18280333280563354,-0.2251220941543579,9.102572441101074
1503530608552,0.1708897352218628,-0.2196655310690403,9.093185424804688
1503530608602,0.16855792701244354,-0.227630615234375,9.109232783317566
1503530608652,0.17673635482788086,-0.2390376329421997,9.094904065132141
1503530608702,0.18568968772888184,-0.22700440883636475,9.084777593612671
1503530608752,0.1733548641204834,-0.22084138542413712,9.097896337509155
1503530608802,0.18130993843078613,-0.21814213693141937,9.110667109489441
1503530608852,0.17755740880966187,-0.22327271103858948,9.1273775100708
1503530608902,0.1653541922569275,-0.23907530307769775,9.107678532600403
1503530608952,0.1673736572265625,-0.233551025390625,9.060209512710571
1503530609002,0.1657823920249939,-0.2277614176273346,9.12623405456543
1503530609052,0.17725062370300293,-0.23117554187774658,9.089073419570923
1503530609102,0.1595402956008911,-0.22807934880256653,9.126964569091797
1503530609152,0.1854497194290161,-0.2378169298171997,9.09361457824707
1503530609202,0.18433335423469543,-0.2276044487953186,9.114025115966797
1503530609252,0.18481506407260895,-0.2318572998046875,9.130686819553375
1503530609302,0.17175108194351196,-0.22486084699630737,9.106548190116882
1503530609352,0.17654547095298767,-0.21144676208496094,9.111183434724808
1503530609402,0.18320497870445251,-0.2259649634361267,9.093199610710144
1503530609452,0.18160326033830643,-0.2489842176437378,9.116682291030884
1503530609502,0.187744140625,-0.23516845703125,9.092437982559204
1503530609552,0.1768225096166134,-0.20754361152648926,9.13758870959282
1503530609602,0.17736101150512695,-0.23007732629776,9.133918195962906
1503530609652,0.15956366062164307,-0.21418029814958572,9.135515928268433
1503530609702,0.1798192262649536,-0.21299993991851807,9.095523953437805
1503530609752,0.17323017120361328,-0.20755577087402344,9.102307438850403
1503530609802,0.18346863985061646,-0.2239745855331421,9.12090128660202
1503530609852,0.1803501844406128,-0.24174994230270386,9.112938344478607
1503530609902,0.19026854634284973,-0.22644412517547607,9.122677683830261
1503530609952,0.1870025396347046,-0.2125641107559204,9.102509260177612
1503530610002,0.17995643615722656,-0.221954345703125,9.119100391864777
1503530610052,0.17072409391403198,-0.22534272074699402,9.11127483844757
1503530610102,0.179718017578125,-0.22307312488555908,9.12079507112503
1503530610152,0.17748653888702393,-0.2306200936436653,9.115834712982178
1503530610202,0.19031941890716553,-0.23062631487846375,9.123404860496521
1503530610252,0.173750638961792,-0.2320263385772705,9.103922843933105
1503530610302,0.18649384379386902,-0.2216329723596573,9.085345268249512
1503530610352,0.19180017709732056,-0.22701150178909302,9.104522585868835
1503530610402,0.18855971097946167,-0.22616839408874512,9.110787391662598
1503530610452,0.1859152913093567,-0.2079620361328125,9.104477018117905
1503530610502,0.18922579288482666,-0.22088623046875,9.095625519752502
1503530610552,0.16938376426696777,-0.2093244194984436,9.078010082244873
1503530610602,0.16442871,-0.2179316282272339,9.075169563293457
1503530610652,0.16378021240234375,-0.21880006790161133,9.102407976984978
1503530610702,0.17193388938903809,-0.2324791718274355,9.10085840523243
1503530610752,0.18300926685333252,-0.23244056105613708,9.103756189346313
1503530610802,0.17618483304977417,-0.22759383916854858,9.106376335024834
1503530610852,0.188232421875,-0.226409912109375,9.109289824962616
1503530610902,0.19537354,-0.22867292165756226,9.114964500069618
1503530610952,0.1900634765625,-0.2176906168460846,9.108346104621887
1503530611002,0.18486998975276947,-0.2190954089164734,9.111707329750061
1503530611052,0.17637133598327637,-0.2326068878173828,9.124190926551819
1503530611102,0.15942040085792542,-0.24320486187934875,9.113694667816162
1503530611152,0.1606317162513733,-0.22616291046142578,9.112393260002136
